
time,ax,ay,az,wx,wy,wz,Latitude,Longitude,Speed (m/s),Altitude (m),
0.041237,0.0000,0.0000,0.0000,0.0000,0.0000,0.0000,0.00000000,0.00000000,0.00000000,841.30000000,
0.043753,0.0000,0.0000,0.0000,0.5223,0.0916,-0.0990,12.84349500,77.66312833,0.00000000,841.30000000,
0.058103,0.0000,0.0000,0.0000,0.5223,0.0916,-0.0990,12.84349500,77.66312833,0.00000000,841.30000000,
0.059053,0.1420,-0.8723,-1.6690,0.5223,0.0916,-0.0990,12.84349500,77.66312833,0.00000000,841.30000000,
0.059855,0.1420,-0.8723,-1.6690,0.0428,0.3928,-0.0507,12.84349500,77.66312833,0.00000000,841.30000000,
0.102257,0.1420,-0.8723,-1.6690,0.0428,0.3928,-0.0507,12.84349500,77.66312833,0.00000000,841.30000000,
0.103171,0.2632,-1.0479,-1.3981,0.0428,0.3928,-0.0507,12.84349500,77.66312833,0.00000000,841.30000000,
0.103882,0.2632,-1.0479,-1.3981,-0.2987,0.6084,-0.0788,12.84349500,77.66312833,0.00000000,841.30000000,
0.104481,0.2632,-1.0479,-1.3981,-0.2987,0.6084,-0.0788,12.84349500,77.66312833,0.00000000,841.30000000,
0.105020,0.0890,-1.2017,-1.2710,-0.2987,0.6084,-0.0788,12.84349500,77.66312833,0.00000000,841.30000000,
0.105602,0.0890,-1.2017,-1.2710,-0.4270,0.7391,-0.0819,12.84349500,77.66312833,0.00000000,841.30000000,
0.119295,0.0890,-1.2017,-1.2710,-0.4270,0.7391,-0.0819,12.84349500,77.66312833,0.00000000,841.30000000,
0.121161,-0.0161,-0.9958,-1.0669,-0.4270,0.7391,-0.0819,12.84349500,77.66312833,0.00000000,841.30000000,
0.123005,-0.0161,-0.9958,-1.0669,-0.3903,0.7245,-0.0739,12.84349500,77.66312833,0.00000000,841.30000000,
0.136331,-0.0161,-0.9958,-1.0669,-0.3903,0.7245,-0.0739,12.84349500,77.66312833,0.00000000,841.30000000,
0.138139,-0.0978,-0.6627,-0.5737,-0.3903,0.7245,-0.0739,12.84349500,77.66312833,0.00000000,841.30000000,
0.139669,-0.0978,-0.6627,-0.5737,-0.2889,0.5803,-0.1527,12.84349500,77.66312833,0.00000000,841.30000000,
0.163015,-0.0978,-0.6627,-0.5737,-0.2889,0.5803,-0.1527,12.84349500,77.66312833,0.00000000,841.30000000,
0.164968,-0.2658,-0.6129,-0.8349,-0.2889,0.5803,-0.1527,12.84349500,77.66312833,0.00000000,841.30000000,
0.167646,-0.2658,-0.6129,-0.8349,-0.2529,0.3335,-0.2682,12.84349500,77.66312833,0.00000000,841.30000000,
0.176692,-0.2658,-0.6129,-0.8349,-0.2529,0.3335,-0.2682,12.84349500,77.66312833,0.00000000,841.30000000,
0.178462,-0.2626,-0.4958,-1.0887,-0.2529,0.3335,-0.2682,12.84349500,77.66312833,0.00000000,841.30000000,
0.180138,-0.2626,-0.4958,-1.0887,-0.3958,0.1692,-0.3574,12.84349500,77.66312833,0.00000000,841.30000000,
0.200173,-0.2626,-0.4958,-1.0887,-0.3958,0.1692,-0.3574,12.84349500,77.66312833,0.00000000,841.30000000,
0.203120,-0.7007,-0.2424,-0.5357,-0.3958,0.1692,-0.3574,12.84349500,77.66312833,0.00000000,841.30000000,
0.206457,-0.7007,-0.2424,-0.5357,-0.4667,-0.0434,-0.2498,12.84349500,77.66312833,0.00000000,841.30000000,
0.218092,-0.7007,-0.2424,-0.5357,-0.4667,-0.0434,-0.2498,12.84349500,77.66312833,0.00000000,841.30000000,
0.219795,0.0068,-0.5041,-0.5837,-0.4667,-0.0434,-0.2498,12.84349500,77.66312833,0.00000000,841.30000000,
0.221436,0.0068,-0.5041,-0.5837,-0.4404,-0.2608,-0.0721,12.84349500,77.66312833,0.00000000,841.30000000,
0.244126,0.0068,-0.5041,-0.5837,-0.4404,-0.2608,-0.0721,12.84349500,77.66312833,0.00000000,841.30000000,
0.247599,0.5172,-0.4932,-0.2562,-0.4404,-0.2608,-0.0721,12.84349500,77.66312833,0.00000000,841.30000000,
0.250240,0.5172,-0.4932,-0.2562,-0.4392,-0.3543,-0.0898,12.84349500,77.66312833,0.00000000,841.30000000,
0.256118,0.5172,-0.4932,-0.2562,-0.4392,-0.3543,-0.0898,12.84349500,77.66312833,0.00000000,841.30000000,
0.256718,0.7261,-0.5045,-0.3595,-0.4392,-0.3543,-0.0898,12.84349500,77.66312833,0.00000000,841.30000000,
0.257250,0.7261,-0.5045,-0.3595,-0.4875,-0.3384,-0.2462,12.84349500,77.66312833,0.00000000,841.30000000,
0.280887,0.7261,-0.5045,-0.3595,-0.4875,-0.3384,-0.2462,12.84349500,77.66312833,0.00000000,841.30000000,
0.281722,0.3148,-0.6456,-0.9652,-0.4875,-0.3384,-0.2462,12.84349500,77.66312833,0.00000000,841.30000000,
0.282482,0.3148,-0.6456,-0.9652,-0.5718,-0.0354,-0.3549,12.84349500,77.66312833,0.00000000,841.30000000,
0.296302,0.3148,-0.6456,-0.9652,-0.5718,-0.0354,-0.3549,12.84349500,77.66312833,0.00000000,841.30000000,
0.297438,-0.1600,-0.5946,-1.2379,-0.5718,-0.0354,-0.3549,12.84349500,77.66312833,0.00000000,841.30000000,
0.298219,-0.1600,-0.5946,-1.2379,-0.8088,0.2352,-0.3122,12.84349500,77.66312833,0.00000000,841.30000000,
0.323122,-0.1600,-0.5946,-1.2379,-0.8088,0.2352,-0.3122,12.84349500,77.66312833,0.00000000,841.30000000,
0.324956,-0.7925,-0.3591,0.3010,-0.8088,0.2352,-0.3122,12.84349500,77.66312833,0.00000000,841.30000000,
0.326481,-0.7925,-0.3591,0.3010,-0.9316,0.3983,-0.0110,12.84349500,77.66312833,0.00000000,841.30000000,
0.336239,-0.7925,-0.3591,0.3010,-0.9316,0.3983,-0.0110,12.84349500,77.66312833,0.00000000,841.30000000,
0.337198,-0.5895,-0.2237,1.2404,-0.9316,0.3983,-0.0110,12.84349500,77.66312833,0.00000000,841.30000000,
0.338676,-0.5895,-0.2237,1.2404,-0.7672,0.6329,0.3183,12.84349500,77.66312833,0.00000000,841.30000000,
0.359025,-0.5895,-0.2237,1.2404,-0.7672,0.6329,0.3183,12.84349500,77.66312833,0.00000000,841.30000000,
0.359951,0.1994,-0.2223,1.7205,-0.7672,0.6329,0.3183,12.84349500,77.66312833,0.00000000,841.30000000,
0.360767,0.1994,-0.2223,1.7205,-0.5168,0.6310,0.4704,12.84349500,77.66312833,0.00000000,841.30000000,
0.376323,0.1994,-0.2223,1.7205,-0.5168,0.6310,0.4704,12.84349500,77.66312833,0.00000000,841.30000000,
0.377259,1.2219,-0.3689,2.3499,-0.5168,0.6310,0.4704,12.84349500,77.66312833,0.00000000,841.30000000,
0.378194,1.2219,-0.3689,2.3499,-0.3354,0.0434,0.2926,12.84349500,77.66312833,0.00000000,841.30000000,
0.403402,1.2219,-0.3689,2.3499,-0.3354,0.0434,0.2926,12.84349500,77.66312833,0.00000000,841.30000000,
0.404931,1.2587,-0.6088,2.6797,-0.3354,0.0434,0.2926,12.84349500,77.66312833,0.00000000,841.30000000,
0.406119,1.2587,-0.6088,2.6797,-0.0892,-0.4795,0.0434,12.84349500,77.66312833,0.00000000,841.30000000,
0.416216,1.2587,-0.6088,2.6797,-0.0892,-0.4795,0.0434,12.84349500,77.66312833,0.00000000,841.30000000,
0.417074,0.9514,-0.5889,3.0634,-0.0892,-0.4795,0.0434,12.84349500,77.66312833,0.00000000,841.30000000,
0.417953,0.9514,-0.5889,3.0634,0.2535,-0.5180,-0.0342,12.84349500,77.66312833,0.00000000,841.30000000,
0.438503,0.9514,-0.5889,3.0634,0.2535,-0.5180,-0.0342,12.84349500,77.66312833,0.00000000,841.30000000,
0.439376,0.9567,-0.2377,3.9089,0.2535,-0.5180,-0.0342,12.84349500,77.66312833,0.00000000,841.30000000,
0.440224,0.9567,-0.2377,3.9089,0.6866,-0.8485,-0.1228,12.84349500,77.66312833,0.00000000,841.30000000,
0.456431,0.9567,-0.2377,3.9089,0.6866,-0.8485,-0.1228,12.84349500,77.66312833,0.00000000,841.30000000,
0.457315,0.3638,-0.0439,3.1257,0.6866,-0.8485,-0.1228,12.84349500,77.66312833,0.00000000,841.30000000,
0.458265,0.3638,-0.0439,3.1257,1.1784,-0.6854,-0.2230,12.84349500,77.66312833,0.00000000,841.30000000,
0.483059,0.3638,-0.0439,3.1257,1.3738,-0.2431,-0.1258,12.84349500,77.66312833,0.00000000,841.30000000,
0.496626,0.3638,-0.0439,3.1257,1.3738,-0.2431,-0.1258,12.84349500,77.66312833,0.00000000,841.30000000,
0.498397,0.0451,-3.2241,-0.0543,1.3738,-0.2431,-0.1258,12.84349500,77.66312833,0.00000000,841.30000000,
0.499744,0.0451,-3.2241,-0.0543,1.1558,-0.0709,-0.0159,12.84349500,77.66312833,0.00000000,841.30000000,
0.519188,0.0451,-3.2241,-0.0543,0.9401,-0.3989,0.1521,12.84349500,77.66312833,0.00000000,841.30000000,
0.536793,0.0451,-3.2241,-0.0543,0.9401,-0.3989,0.1521,12.84349500,77.66312833,0.00000000,841.30000000,
0.537834,0.0451,-3.2241,-0.0543,1.2407,0.0147,0.5272,12.84349500,77.66312833,0.00000000,841.30000000,
0.538892,-1.2089,-2.2876,3.1040,1.2407,0.0147,0.5272,12.84349500,77.66312833,0.00000000,841.30000000,
0.562971,-1.2089,-2.2876,3.1040,2.0409,0.1527,0.9206,12.84349500,77.66312833,0.00000000,841.30000000,
0.576320,-1.2089,-2.2876,3.1040,2.0409,0.1527,0.9206,12.84349500,77.66312833,0.00000000,841.30000000,
0.577231,0.8261,-1.2942,2.5216,2.0409,0.1527,0.9206,12.84349500,77.66312833,0.00000000,841.30000000,
0.578249,0.8261,-1.2942,2.5216,2.7171,0.7941,1.0421,12.84349500,77.66312833,0.00000000,841.30000000,
0.599544,0.8261,-1.2942,2.5216,2.5143,0.5657,0.8534,12.84349500,77.66312833,0.00000000,841.30000000,
0.617461,0.8261,-1.2942,2.5216,2.5143,0.5657,0.8534,12.84349500,77.66312833,0.00000000,841.30000000,
0.619861,0.8261,-1.2942,2.5216,1.8515,0.6799,0.8344,12.84349500,77.66312833,0.00000000,841.30000000,
0.621539,-0.5526,-1.0120,-1.1295,1.8515,0.6799,0.8344,12.84349500,77.66312833,0.00000000,841.30000000,
0.643527,-0.5526,-1.0120,-1.1295,1.0360,1.0763,0.9096,12.84349500,77.66312833,0.00000000,841.30000000,
0.657254,-0.5526,-1.0120,-1.1295,1.0360,1.0763,0.9096,12.84349500,77.66312833,0.00000000,841.30000000,
0.659410,-0.5526,-1.0120,-1.1295,0.3299,1.0873,0.8906,12.84349500,77.66312833,0.00000000,841.30000000,
0.660828,-0.2930,-0.2729,-0.2745,0.3299,1.0873,0.8906,12.84349500,77.66312833,0.00000000,841.30000000,
0.678829,-0.2930,-0.2729,-0.2745,0.0715,0.7172,0.7483,12.84349500,77.66312833,0.00000000,841.30000000,
0.696674,-0.2930,-0.2729,-0.2745,0.0715,0.7172,0.7483,12.84349500,77.66312833,0.00000000,841.30000000,
0.698580,0.6203,-0.7073,1.8568,0.0715,0.7172,0.7483,12.84349500,77.66312833,0.00000000,841.30000000,
0.699881,0.6203,-0.7073,1.8568,0.2633,0.1588,0.5174,12.84349500,77.66312833,0.00000000,841.30000000,
0.723254,0.6203,-0.7073,1.8568,0.4612,-0.1698,0.3097,12.84349500,77.66312833,0.00000000,841.30000000,
0.736851,0.6203,-0.7073,1.8568,0.4612,-0.1698,0.3097,12.84349500,77.66312833,0.00000000,841.30000000,
0.739093,0.6203,-0.7073,1.8568,0.3048,-0.1717,0.2224,12.84349500,77.66312833,0.00000000,841.30000000,
0.740393,0.7420,-1.7163,-1.1299,0.3048,-0.1717,0.2224,12.84349500,77.66312833,0.00000000,841.30000000,
0.760272,0.7420,-1.7163,-1.1299,-0.0110,0.0110,0.2279,12.84349500,77.66312833,0.00000000,841.30000000,
0.776673,0.7420,-1.7163,-1.1299,-0.0110,0.0110,0.2279,12.84349500,77.66312833,0.00000000,841.30000000,
0.778523,0.0359,-1.3072,-0.9092,-0.0110,0.0110,0.2279,12.84349500,77.66312833,0.00000000,841.30000000,
0.779830,0.0359,-1.3072,-0.9092,-0.1747,0.0476,0.2443,12.84349500,77.66312833,0.00000000,841.30000000,
0.804004,0.0359,-1.3072,-0.9092,-0.2053,0.0134,0.2126,12.84349500,77.66312833,0.00000000,841.30000000,
0.817391,0.0359,-1.3072,-0.9092,-0.2053,0.0134,0.2126,12.84349500,77.66312833,0.00000000,841.30000000,
0.819145,0.3483,-1.2769,-0.5844,-0.2053,0.0134,0.2126,12.84349500,77.66312833,0.00000000,841.30000000,
0.821983,0.3483,-1.2769,-0.5844,-0.1600,0.1448,0.1594,12.84349500,77.66312833,0.00000000,841.30000000,
0.839640,0.3483,-1.2769,-0.5844,-0.1625,0.2792,0.1191,12.84349500,77.66312833,0.00000000,841.30000000,
0.856977,0.3483,-1.2769,-0.5844,-0.1625,0.2792,0.1191,12.84349500,77.66312833,0.00000000,841.30000000,
0.858960,0.3483,-1.2769,-0.5844,-0.1814,0.2908,0.0922,12.84349500,77.66312833,0.00000000,841.30000000,
0.860392,0.3943,-1.0549,-1.2617,-0.1814,0.2908,0.0922,12.84349500,77.66312833,0.00000000,841.30000000,
0.883372,0.3943,-1.0549,-1.2617,-0.1796,-0.0525,0.0519,12.84349500,77.66312833,0.00000000,841.30000000,
0.897716,0.3943,-1.0549,-1.2617,-0.1796,-0.0525,0.0519,12.84349500,77.66312833,0.00000000,841.30000000,
0.900326,0.3943,-1.0549,-1.2617,-0.1539,-0.3775,0.0159,12.84349500,77.66312833,0.00000000,841.30000000,
0.902449,-0.0194,-0.4932,-0.6806,-0.1539,-0.3775,0.0159,12.84349500,77.66312833,0.00000000,841.30000000,
0.918967,-0.0194,-0.4932,-0.6806,-0.1888,-0.3732,0.0140,12.84349500,77.66312833,0.00000000,841.30000000,
0.937038,-0.0194,-0.4932,-0.6806,-0.1888,-0.3732,0.0140,12.84349500,77.66312833,0.00000000,841.30000000,
0.939247,-0.0194,-0.4932,-0.6806,-0.2547,-0.1784,0.0275,12.84349500,77.66312833,0.00000000,841.30000000,
0.940730,0.0313,-0.7165,-0.5897,-0.2547,-0.1784,0.0275,12.84349500,77.66312833,0.00000000,841.30000000,
0.964010,0.0313,-0.7165,-0.5897,-0.2242,-0.0061,0.0489,12.84349500,77.66312833,0.00000000,841.30000000,
0.977548,0.0313,-0.7165,-0.5897,-0.2242,-0.0061,0.0489,12.84349500,77.66312833,0.00000000,841.30000000,
0.979446,0.3690,-0.1619,0.5408,-0.2242,-0.0061,0.0489,12.84349500,77.66312833,0.00000000,841.30000000,
0.980774,0.3690,-0.1619,0.5408,-0.0855,0.0238,0.0165,12.84349500,77.66312833,0.00000000,841.30000000,
1.000033,0.3690,-0.1619,0.5408,0.1112,0.0073,-0.0825,12.84349500,77.66312833,0.00000000,841.30000000,
1.016869,0.3690,-0.1619,0.5408,0.1112,0.0073,-0.0825,12.84349500,77.66312833,0.00000000,841.30000000,
1.018823,-0.0225,-0.0722,0.1416,0.1112,0.0073,-0.0825,12.84349500,77.66312833,0.00000000,841.30000000,
1.020359,-0.0225,-0.0722,0.1416,0.1753,-0.0550,-0.1814,12.84349500,77.66312833,0.00000000,841.30000000,
1.044032,-0.0225,-0.0722,0.1416,0.0648,-0.0715,-0.1576,12.84349500,77.66312833,0.00000000,841.30000000,
1.056770,-0.0225,-0.0722,0.1416,0.0648,-0.0715,-0.1576,12.84349500,77.66312833,0.00000000,841.30000000,
1.058538,-0.6431,-0.2589,0.7129,0.0648,-0.0715,-0.1576,12.84349500,77.66312833,0.00000000,841.30000000,
1.059955,-0.6431,-0.2589,0.7129,-0.0733,-0.1558,-0.0336,12.84349500,77.66312833,0.00000000,841.30000000,
1.079741,-0.6431,-0.2589,0.7129,-0.1393,-0.2810,0.0641,12.84349500,77.66312833,0.00000000,841.30000000,
1.096849,-0.6431,-0.2589,0.7129,-0.1393,-0.2810,0.0641,12.84349500,77.66312833,0.00000000,841.30000000,
1.099234,0.1829,-0.2896,2.2051,-0.1393,-0.2810,0.0641,12.84349500,77.66312833,0.00000000,841.30000000,
1.101671,0.1829,-0.2896,2.2051,-0.1264,-0.3348,0.0770,12.84349500,77.66312833,0.00000000,841.30000000,
1.123484,0.1829,-0.2896,2.2051,-0.0446,-0.2468,0.0825,12.84349500,77.66312833,0.00000000,841.30000000,
1.136862,0.1829,-0.2896,2.2051,-0.0446,-0.2468,0.0825,12.84349500,77.66312833,0.00000000,841.30000000,
1.138695,0.0757,-0.3414,2.1875,-0.0446,-0.2468,0.0825,12.84349500,77.66312833,0.00000000,841.30000000,
1.140680,0.0757,-0.3414,2.1875,0.1002,0.0134,0.0709,12.84349500,77.66312833,0.00000000,841.30000000,
1.159466,0.0757,-0.3414,2.1875,0.0550,0.0153,-0.0403,12.84349500,77.66312833,0.00000000,841.30000000,
1.176790,0.0757,-0.3414,2.1875,0.0550,0.0153,-0.0403,12.84349500,77.66312833,0.00000000,841.30000000,
1.178436,-0.0449,-0.3358,0.2556,0.0550,0.0153,-0.0403,12.84349500,77.66312833,0.00000000,841.30000000,
1.179809,-0.0449,-0.3358,0.2556,-0.3036,-0.1313,-0.0935,12.84349500,77.66312833,0.00000000,841.30000000,
1.203466,-0.0449,-0.3358,0.2556,-0.7092,-0.2095,-0.0049,12.84349500,77.66312833,0.00000000,841.30000000,
1.220053,-0.0449,-0.3358,0.2556,-0.7092,-0.2095,-0.0049,12.84349500,77.66312833,0.00000000,841.30000000,
1.222521,1.1186,-0.7541,2.3502,-0.7092,-0.2095,-0.0049,12.84349500,77.66312833,0.00000000,841.30000000,
1.224598,1.1186,-0.7541,2.3502,-0.7758,-0.2046,0.0379,12.84349500,77.66312833,0.00000000,841.30000000,
1.239566,1.1186,-0.7541,2.3502,-0.4282,-0.1961,0.0452,12.84349500,77.66312833,0.00000000,841.30000000,
1.256409,1.1186,-0.7541,2.3502,-0.4282,-0.1961,0.0452,12.84349500,77.66312833,0.00000000,841.30000000,
1.257510,1.5125,-0.8755,2.9249,-0.4282,-0.1961,0.0452,12.84349500,77.66312833,0.00000000,841.30000000,
1.258701,1.5125,-0.8755,2.9249,0.1106,-0.1753,-0.0049,12.84349500,77.66312833,0.00000000,841.30000000,
1.283506,1.5125,-0.8755,2.9249,0.5449,-0.2053,-0.1295,12.84349500,77.66312833,0.00000000,841.30000000,
1.296772,1.5125,-0.8755,2.9249,0.5449,-0.2053,-0.1295,12.84349500,77.66312833,0.00000000,841.30000000,
1.298954,0.7505,-1.0534,-0.0264,0.5449,-0.2053,-0.1295,12.84349500,77.66312833,0.00000000,841.30000000,
1.300558,0.7505,-1.0534,-0.0264,0.5571,-0.2199,-0.2266,12.84349500,77.66312833,0.00000000,841.30000000,
1.319191,0.7505,-1.0534,-0.0264,0.1710,-0.1081,-0.2334,12.84349500,77.66312833,0.00000000,841.30000000,
1.337437,0.7505,-1.0534,-0.0264,0.1710,-0.1081,-0.2334,12.84349500,77.66312833,0.00000000,841.30000000,
1.339906,0.5306,-1.1273,-0.2624,0.1710,-0.1081,-0.2334,12.84349500,77.66312833,0.00000000,841.30000000,
1.342170,0.5306,-1.1273,-0.2624,-0.2266,0.0293,-0.1808,12.84349500,77.66312833,0.00000000,841.30000000,
1.363842,0.5306,-1.1273,-0.2624,-0.3580,0.0281,-0.1753,12.84349500,77.66312833,0.00000000,841.30000000,
1.377372,0.5306,-1.1273,-0.2624,-0.3580,0.0281,-0.1753,12.84349500,77.66312833,0.00000000,841.30000000,
1.380028,0.9491,-1.1743,0.9818,-0.3580,0.0281,-0.1753,12.84349500,77.66312833,0.00000000,841.30000000,
1.381449,0.9491,-1.1743,0.9818,-0.2199,-0.0623,-0.2266,12.84349500,77.66312833,0.00000000,841.30000000,
1.399727,0.9491,-1.1743,0.9818,0.0476,-0.0483,-0.2737,12.84349500,77.66312833,0.00000000,841.30000000,
1.417144,0.9491,-1.1743,0.9818,0.0476,-0.0483,-0.2737,12.84349500,77.66312833,0.00000000,841.30000000,
1.418978,0.9491,-1.1743,0.9818,0.2969,0.0195,-0.2902,12.84349500,77.66312833,0.00000000,841.30000000,
1.420243,0.2839,-0.9952,-0.1686,0.2969,0.0195,-0.2902,12.84349500,77.66312833,0.00000000,841.30000000,
1.444095,0.2839,-0.9952,-0.1686,0.3311,0.0544,-0.2511,12.84349500,77.66312833,0.00000000,841.30000000,
1.456935,0.2839,-0.9952,-0.1686,0.3311,0.0544,-0.2511,12.84349500,77.66312833,0.00000000,841.30000000,
1.458639,-0.2960,-0.9631,-2.2138,0.3311,0.0544,-0.2511,12.84349500,77.66312833,0.00000000,841.30000000,
1.460054,-0.2960,-0.9631,-2.2138,0.1607,0.1130,-0.1796,12.84349500,77.66312833,0.00000000,841.30000000,
1.479935,-0.2960,-0.9631,-2.2138,-0.0648,0.1020,-0.0880,12.84349500,77.66312833,0.00000000,841.30000000,
1.497041,-0.2960,-0.9631,-2.2138,-0.0648,0.1020,-0.0880,12.84349500,77.66312833,0.00000000,841.30000000,
1.498879,0.0615,-0.5079,-0.9173,-0.0648,0.1020,-0.0880,12.84349500,77.66312833,0.00000000,841.30000000,
1.500570,0.0615,-0.5079,-0.9173,-0.1203,0.0489,-0.0232,12.84349500,77.66312833,0.00000000,841.30000000,
1.523478,0.0615,-0.5079,-0.9173,0.0440,-0.0336,0.0049,12.84349500,77.66312833,0.00000000,841.30000000,
1.536908,0.0615,-0.5079,-0.9173,0.0440,-0.0336,0.0049,12.84349500,77.66312833,0.00000000,841.30000000,
1.539752,0.3636,-0.4572,-0.1598,0.0440,-0.0336,0.0049,12.84349500,77.66312833,0.00000000,841.30000000,
1.541287,0.3636,-0.4572,-0.1598,0.3036,-0.1436,0.0122,12.84349500,77.66312833,0.00000000,841.30000000,
1.558708,0.3636,-0.4572,-0.1598,0.4563,-0.2260,0.0037,12.84349500,77.66312833,0.00000000,841.30000000,
1.576752,0.3636,-0.4572,-0.1598,0.4563,-0.2260,0.0037,12.84349500,77.66312833,0.00000000,841.30000000,
1.578663,0.0467,-0.2798,-1.6349,0.4563,-0.2260,0.0037,12.84349500,77.66312833,0.00000000,841.30000000,
1.580462,0.0467,-0.2798,-1.6349,0.3531,-0.2199,-0.0293,12.84349500,77.66312833,0.00000000,841.30000000,
1.603478,0.0467,-0.2798,-1.6349,0.1045,-0.1057,-0.0318,12.84349500,77.66312833,0.00000000,841.30000000,
1.617315,0.0467,-0.2798,-1.6349,0.1045,-0.1057,-0.0318,12.84349500,77.66312833,0.00000000,841.30000000,
1.619004,0.2051,-0.1033,-0.5889,0.1045,-0.1057,-0.0318,12.84349500,77.66312833,0.00000000,841.30000000,
1.620412,0.2051,-0.1033,-0.5889,-0.0580,0.0391,-0.0299,12.84349500,77.66312833,0.00000000,841.30000000,
1.639254,0.2051,-0.1033,-0.5889,-0.0641,0.1717,-0.0250,12.84349500,77.66312833,0.00000000,841.30000000,
1.657484,0.2051,-0.1033,-0.5889,-0.0641,0.1717,-0.0250,12.84349500,77.66312833,0.00000000,841.30000000,
1.659698,0.2051,-0.1033,-0.5889,0.0079,0.2669,0.0446,12.84349500,77.66312833,0.00000000,841.30000000,
1.661112,-0.1542,0.0301,0.0768,0.0079,0.2669,0.0446,12.84349500,77.66312833,0.00000000,841.30000000,
1.683495,-0.1542,0.0301,0.0768,0.0886,0.2144,0.1368,12.84349500,77.66312833,0.00000000,841.30000000,
1.696874,-0.1542,0.0301,0.0768,0.0886,0.2144,0.1368,12.84349500,77.66312833,0.00000000,841.30000000,
1.698880,-0.0994,0.5586,0.1883,0.0886,0.2144,0.1368,12.84349500,77.66312833,0.00000000,841.30000000,
1.700391,-0.0994,0.5586,0.1883,0.1570,0.1161,0.1759,12.84349500,77.66312833,0.00000000,841.30000000,
1.719835,-0.0994,0.5586,0.1883,0.1930,-0.0721,0.1332,12.84349500,77.66312833,0.00000000,841.30000000,
1.737515,-0.0994,0.5586,0.1883,0.1930,-0.0721,0.1332,12.84349500,77.66312833,0.00000000,841.30000000,
1.739685,0.7731,0.1640,0.3313,0.1930,-0.0721,0.1332,12.84349500,77.66312833,0.00000000,841.30000000,
1.740925,0.7731,0.1640,0.3313,0.1045,-0.2382,0.0299,12.84349500,77.66312833,0.00000000,841.30000000,
1.763770,0.7731,0.1640,0.3313,-0.0953,-0.2969,-0.0409,12.84349500,77.66312833,0.00000000,841.30000000,
1.776918,0.7731,0.1640,0.3313,-0.0953,-0.2969,-0.0409,12.84349500,77.66312833,0.00000000,841.30000000,
1.778862,0.3077,-0.2736,2.0545,-0.0953,-0.2969,-0.0409,12.84349500,77.66312833,0.00000000,841.30000000,
1.780763,0.3077,-0.2736,2.0545,-0.1307,-0.1142,-0.0202,12.84349500,77.66312833,0.00000000,841.30000000,
1.799162,0.3077,-0.2736,2.0545,0.1020,0.1765,0.0709,12.84349500,77.66312833,0.00000000,841.30000000,
1.816772,0.3077,-0.2736,2.0545,0.1020,0.1765,0.0709,12.84349500,77.66312833,0.00000000,841.30000000,
1.818290,0.3077,-0.2736,2.0545,0.2040,0.2065,0.1100,12.84349500,77.66312833,0.00000000,841.30000000,
1.821170,-0.3099,0.2259,1.5088,0.2040,0.2065,0.1100,12.84349500,77.66312833,0.00000000,841.30000000,
1.844094,-0.3099,0.2259,1.5088,-0.0476,0.0544,0.0617,12.84349500,77.66312833,0.00000000,841.30000000,
1.856501,-0.3099,0.2259,1.5088,-0.0476,0.0544,0.0617,12.84349500,77.66312833,0.00000000,841.30000000,
1.858384,-0.3099,0.2259,1.5088,-0.4704,-0.1405,-0.1350,12.84349500,77.66312833,0.00000000,841.30000000,
1.859627,0.6211,0.2421,1.3489,-0.4704,-0.1405,-0.1350,12.84349500,77.66312833,0.00000000,841.30000000,
1.879086,0.6211,0.2421,1.3489,-0.6249,-0.1148,-0.3103,12.84349500,77.66312833,0.00000000,841.30000000,
1.897138,0.6211,0.2421,1.3489,-0.6249,-0.1148,-0.3103,12.84349500,77.66312833,0.00000000,841.30000000,
1.898669,0.6211,0.2421,1.3489,-0.4368,0.0354,-0.2676,12.84349500,77.66312833,0.00000000,841.30000000,
1.900096,-0.4205,-1.3638,3.0303,-0.4368,0.0354,-0.2676,12.84349500,77.66312833,0.00000000,841.30000000,
1.923611,-0.4205,-1.3638,3.0303,-0.0959,0.2022,-0.0354,12.84349500,77.66312833,0.00000000,841.30000000,
1.936528,-0.4205,-1.3638,3.0303,-0.0959,0.2022,-0.0354,12.84349500,77.66312833,0.00000000,841.30000000,
1.938663,-1.0798,-1.5522,0.9129,-0.0959,0.2022,-0.0354,12.84349500,77.66312833,0.00000000,841.30000000,
1.940002,-1.0798,-1.5522,0.9129,0.0739,0.3751,0.2059,12.84349500,77.66312833,0.00000000,841.30000000,
1.959984,-1.0798,-1.5522,0.9129,0.0446,0.4105,0.3305,12.84349500,77.66312833,0.00000000,841.30000000,
1.976755,-1.0798,-1.5522,0.9129,0.0446,0.4105,0.3305,12.84349500,77.66312833,0.00000000,841.30000000,
1.978873,-0.4413,-0.7272,-0.0826,0.0446,0.4105,0.3305,12.84349500,77.66312833,0.00000000,841.30000000,
1.980351,-0.4413,-0.7272,-0.0826,-0.0855,0.2236,0.3128,12.84349500,77.66312833,0.00000000,841.30000000,
2.003773,-0.4413,-0.7272,-0.0826,-0.2083,0.0104,0.2505,12.84349500,77.66312833,0.00000000,841.30000000,
2.017838,-0.4413,-0.7272,-0.0826,-0.2083,0.0104,0.2505,12.84349500,77.66312833,0.00000000,841.30000000,
2.019469,-0.4413,-0.7272,-0.0826,-0.2584,-0.0421,0.2896,12.84349500,77.66312833,0.00000000,841.30000000,
2.021260,-0.3103,-1.1988,0.6815,-0.2584,-0.0421,0.2896,12.84349500,77.66312833,0.00000000,841.30000000,
2.039166,-0.3103,-1.1988,0.6815,-0.2553,0.0012,0.3659,12.84349500,77.66312833,0.00000000,841.30000000,
2.056943,-0.3103,-1.1988,0.6815,-0.2553,0.0012,0.3659,12.84349500,77.66312833,0.00000000,841.30000000,
2.058852,-0.3103,-1.1988,0.6815,-0.2156,0.0629,0.4252,12.84349500,77.66312833,0.00000000,841.30000000,
2.060148,-0.0599,-1.2967,1.1009,-0.2156,0.0629,0.4252,12.84349500,77.66312833,0.00000000,841.30000000,
2.083389,-0.0599,-1.2967,1.1009,-0.1631,0.1045,0.4465,12.84349500,77.66312833,0.00000000,841.30000000,
2.096974,-0.0599,-1.2967,1.1009,-0.1631,0.1045,0.4465,12.84349500,77.66312833,0.00000000,841.30000000,
2.098733,0.2187,-0.9075,0.6061,-0.1631,0.1045,0.4465,12.84349500,77.66312833,0.00000000,841.30000000,
2.100299,0.2187,-0.9075,0.6061,-0.0312,0.1185,0.4496,12.84349500,77.66312833,0.00000000,841.30000000,
2.118984,0.2187,-0.9075,0.6061,0.1197,0.1454,0.4068,12.84349500,77.66312833,0.00000000,841.30000000,
2.137881,0.2187,-0.9075,0.6061,0.1197,0.1454,0.4068,12.84349500,77.66312833,0.00000000,841.30000000,
2.139982,0.2187,-0.9075,0.6061,0.1313,0.1967,0.3494,12.84349500,77.66312833,0.00000000,841.30000000,
2.141328,0.3646,-0.9439,-1.3198,0.1313,0.1967,0.3494,12.84349500,77.66312833,0.00000000,841.30000000,
2.164228,0.3646,-0.9439,-1.3198,0.0006,0.2382,0.2761,12.84349500,77.66312833,0.00000000,841.30000000,
2.176944,0.3646,-0.9439,-1.3198,0.0006,0.2382,0.2761,12.84349500,77.66312833,0.00000000,841.30000000,
2.178644,0.3646,-0.9439,-1.3198,-0.1949,0.1900,0.2034,12.84349500,77.66312833,0.00000000,841.30000000,
2.180013,0.3009,-0.5403,-1.8586,-0.1949,0.1900,0.2034,12.84349500,77.66312833,0.00000000,841.30000000,
2.206854,0.3009,-0.5403,-1.8586,-0.2651,0.1008,0.1637,12.84349500,77.66312833,0.00000000,841.30000000,
2.217072,0.3009,-0.5403,-1.8586,-0.2651,0.1008,0.1637,12.84349500,77.66312833,0.00000000,841.30000000,
2.219005,0.4478,-0.6851,-0.4823,-0.2651,0.1008,0.1637,12.84349500,77.66312833,0.00000000,841.30000000,
2.221238,0.4478,-0.6851,-0.4823,-0.1466,0.0525,0.1118,12.84349500,77.66312833,0.00000000,841.30000000,
2.243837,0.4478,-0.6851,-0.4823,0.0525,0.0562,0.0788,12.84349500,77.66312833,0.00000000,841.30000000,
2.256780,0.4478,-0.6851,-0.4823,0.0525,0.0562,0.0788,12.84349500,77.66312833,0.00000000,841.30000000,
2.258944,0.0442,-0.5259,-0.9203,0.0525,0.0562,0.0788,12.84349500,77.66312833,0.00000000,841.30000000,
2.260298,0.0442,-0.5259,-0.9203,0.1466,0.0568,0.1026,12.84349500,77.66312833,0.00000000,841.30000000,
2.279056,0.0442,-0.5259,-0.9203,0.1350,0.0745,0.1417,12.84349500,77.66312833,0.00000000,841.30000000,
2.297339,0.0442,-0.5259,-0.9203,0.1350,0.0745,0.1417,12.84349500,77.66312833,0.00000000,841.30000000,
2.298934,0.2928,-0.1208,-1.2031,0.1350,0.0745,0.1417,12.84349500,77.66312833,0.00000000,841.30000000,
2.300516,0.2928,-0.1208,-1.2031,0.0733,0.0666,0.1142,12.84349500,77.66312833,0.00000000,841.30000000,
2.323620,0.2928,-0.1208,-1.2031,0.0189,0.0348,0.0330,12.84349500,77.66312833,0.00000000,841.30000000,
2.337157,0.2928,-0.1208,-1.2031,0.0189,0.0348,0.0330,12.84349500,77.66312833,0.00000000,841.30000000,
2.339094,0.4072,-0.0213,-0.4849,0.0189,0.0348,0.0330,12.84349500,77.66312833,0.00000000,841.30000000,
2.340638,0.4072,-0.0213,-0.4849,0.0037,0.0208,-0.0373,12.84349500,77.66312833,0.00000000,841.30000000,
2.359025,0.4072,-0.0213,-0.4849,0.0483,-0.0061,-0.0684,12.84349500,77.66312833,0.00000000,841.30000000,
2.377047,0.4072,-0.0213,-0.4849,0.0483,-0.0061,-0.0684,12.84349500,77.66312833,0.00000000,841.30000000,
2.378711,0.2036,0.0229,0.2335,0.0483,-0.0061,-0.0684,12.84349500,77.66312833,0.00000000,841.30000000,
2.379958,0.2036,0.0229,0.2335,0.0470,-0.0898,-0.0959,12.84349500,77.66312833,0.00000000,841.30000000,
2.403781,0.2036,0.0229,0.2335,-0.0574,-0.1918,-0.1264,12.84349500,77.66312833,0.00000000,841.30000000,
2.416810,0.2036,0.0229,0.2335,-0.0574,-0.1918,-0.1264,12.84349500,77.66312833,0.00000000,841.30000000,
2.418140,0.2036,0.0229,0.2335,-0.2150,-0.3415,-0.1148,12.84349500,77.66312833,0.00000000,841.30000000,
2.419396,0.1742,-0.1555,1.3925,-0.2150,-0.3415,-0.1148,12.84349500,77.66312833,0.00000000,841.30000000,
2.439977,0.1742,-0.1555,1.3925,-0.2217,-0.3286,-0.0672,12.84349500,77.66312833,0.00000000,841.30000000,
2.457328,0.1742,-0.1555,1.3925,-0.2217,-0.3286,-0.0672,12.84349500,77.66312833,0.00000000,841.30000000,
2.459329,0.1742,-0.1555,1.3925,0.0269,-0.0531,0.0305,12.84349500,77.66312833,0.00000000,841.30000000,
2.460514,-0.3647,-0.1378,2.6215,0.0269,-0.0531,0.0305,12.84349500,77.66312833,0.00000000,841.30000000,
2.483443,-0.3647,-0.1378,2.6215,0.1796,0.0043,0.0770,12.84349500,77.66312833,0.00000000,841.30000000,
2.496974,-0.3647,-0.1378,2.6215,0.1796,0.0043,0.0770,12.84349500,77.66312833,0.00000000,841.30000000,
2.498673,-0.3647,-0.1378,2.6215,-0.1210,-0.2700,0.0733,12.84349500,77.66312833,0.00000000,841.30000000,
2.499913,-0.2571,0.1164,0.0404,-0.1210,-0.2700,0.0733,12.84349500,77.66312833,0.00000000,841.30000000,
2.519023,-0.2571,0.1164,0.0404,-0.5675,-0.5107,0.0367,12.84349500,77.66312833,0.00000000,841.30000000,
2.536973,-0.2571,0.1164,0.0404,-0.5675,-0.5107,0.0367,12.84349500,77.66312833,0.00000000,841.30000000,
2.539331,-0.2571,0.1164,0.0404,-0.7318,-0.5809,0.0049,12.84349500,77.66312833,0.00000000,841.30000000,
2.540674,0.6315,-0.7205,1.5813,-0.7318,-0.5809,0.0049,12.84349500,77.66312833,0.00000000,841.30000000,
2.563677,0.6315,-0.7205,1.5813,-0.4142,-0.3555,0.1100,12.84349500,77.66312833,0.00000000,841.30000000,
2.576884,0.6315,-0.7205,1.5813,-0.4142,-0.3555,0.1100,12.84349500,77.66312833,0.00000000,841.30000000,
2.578795,0.6315,-0.7205,1.5813,-0.0501,-0.0599,0.2718,12.84349500,77.66312833,0.00000000,841.30000000,
2.580131,-0.1920,-1.3903,0.9549,-0.0501,-0.0599,0.2718,12.84349500,77.66312833,0.00000000,841.30000000,
2.599305,-0.1920,-1.3903,0.9549,-0.1258,0.2517,0.4661,12.84349500,77.66312833,0.00000000,841.30000000,
2.617074,-0.1920,-1.3903,0.9549,-0.1258,0.2517,0.4661,12.84349500,77.66312833,0.00000000,841.30000000,
2.618695,-0.8015,-0.6446,-2.6110,-0.1258,0.2517,0.4661,12.84349500,77.66312833,0.00000000,841.30000000,
2.620468,-0.8015,-0.6446,-2.6110,-0.5516,0.4753,0.6591,12.84349500,77.66312833,0.00000000,841.30000000,
2.643431,-0.8015,-0.6446,-2.6110,-1.3573,0.3433,0.6048,12.84349500,77.66312833,0.00000000,841.30000000,
2.656807,-0.8015,-0.6446,-2.6110,-1.3573,0.3433,0.6048,12.84349500,77.66312833,0.00000000,841.30000000,
2.658492,0.4453,-1.0686,-4.4973,-1.3573,0.3433,0.6048,12.84349500,77.66312833,0.00000000,841.30000000,
2.659963,0.4453,-1.0686,-4.4973,-2.2608,0.1588,0.4875,12.84349500,77.66312833,0.00000000,841.30000000,
2.679585,0.4453,-1.0686,-4.4973,-3.0446,0.1973,0.4191,12.84349500,77.66312833,0.00000000,841.30000000,
2.697333,0.4453,-1.0686,-4.4973,-3.0446,0.1973,0.4191,12.84349500,77.66312833,0.00000000,841.30000000,
2.699665,-0.2980,-0.5996,-0.5351,-3.0446,0.1973,0.4191,12.84349500,77.66312833,0.00000000,841.30000000,
2.701349,-0.2980,-0.5996,-0.5351,-3.4667,0.4447,0.2199,12.84349500,77.66312833,0.00000000,841.30000000,
2.723823,-0.2980,-0.5996,-0.5351,-2.8680,0.1888,0.2450,12.84349500,77.66312833,0.00000000,841.30000000,
2.737433,-0.2980,-0.5996,-0.5351,-2.8680,0.1888,0.2450,12.84349500,77.66312833,0.00000000,841.30000000,
2.739358,-0.2980,-0.5996,-0.5351,-1.5656,0.3732,0.2957,12.84349500,77.66312833,0.00000000,841.30000000,
2.740713,0.1471,-1.1965,3.9719,-1.5656,0.3732,0.2957,12.84349500,77.66312833,0.00000000,841.30000000,
2.759017,0.1471,-1.1965,3.9719,-0.3396,0.7501,0.2914,12.84349500,77.66312833,0.00000000,841.30000000,
2.777567,0.1471,-1.1965,3.9719,-0.3396,0.7501,0.2914,12.84349500,77.66312833,0.00000000,841.30000000,
2.779137,0.2668,-0.2445,-0.3158,-0.3396,0.7501,0.2914,12.84349500,77.66312833,0.00000000,841.30000000,
2.780570,0.2668,-0.2445,-0.3158,0.2572,0.8314,0.2676,12.84349500,77.66312833,0.00000000,841.30000000,
2.805606,0.2668,-0.2445,-0.3158,0.2853,0.5241,0.2431,12.84349500,77.66312833,0.00000000,1691.80000000,
2.816561,0.2668,-0.2445,-0.3158,0.2853,0.5241,0.2431,12.84143333,77.66258500,0.46839723,1691.80000000,
2.818645,0.0073,0.3046,-1.6976,0.2853,0.5241,0.2431,12.84143333,77.66258500,0.46839723,1691.80000000,
2.821144,0.0073,0.3046,-1.6976,0.0544,0.2279,0.1839,12.84143333,77.66258500,0.46839723,1691.80000000,
2.842840,0.0073,0.3046,-1.6976,-0.1674,0.2425,0.2095,12.84143333,77.66258500,0.46839723,1691.80000000,
2.857589,0.0073,0.3046,-1.6976,-0.1674,0.2425,0.2095,12.84143333,77.66258500,0.46839723,1691.80000000,
2.859099,0.3842,-0.5226,-0.3959,-0.1674,0.2425,0.2095,12.84143333,77.66258500,0.46839723,1691.80000000,
2.860576,0.3842,-0.5226,-0.3959,-0.2279,0.2382,0.2767,12.84143333,77.66258500,0.46839723,1691.80000000,
2.883195,0.3842,-0.5226,-0.3959,-0.2144,0.1674,0.3170,12.84143333,77.66258500,0.46839723,1691.80000000,
2.896546,0.3842,-0.5226,-0.3959,-0.2144,0.1674,0.3170,12.84143333,77.66258500,0.46839723,1691.80000000,
2.899266,0.8328,0.1240,-0.1368,-0.2144,0.1674,0.3170,12.84143333,77.66258500,0.46839723,1691.80000000,
2.900573,0.8328,0.1240,-0.1368,-0.2633,0.1680,0.2987,12.84143333,77.66258500,0.46839723,1691.80000000,
2.919296,0.8328,0.1240,-0.1368,-0.3262,0.2034,0.2010,12.84143333,77.66258500,0.46839723,1691.80000000,
2.936919,0.8328,0.1240,-0.1368,-0.3262,0.2034,0.2010,12.84143333,77.66258500,0.46839723,1691.80000000,
2.938544,0.8328,0.1240,-0.1368,-0.3409,0.1985,0.1057,12.84143333,77.66258500,0.46839723,1691.80000000,
2.939959,0.8097,-0.0527,0.4591,-0.3409,0.1985,0.1057,12.84143333,77.66258500,0.46839723,1691.80000000,
2.963273,0.8097,-0.0527,0.4591,-0.2651,0.1839,0.1118,12.84143333,77.66258500,0.46839723,1691.80000000,
2.976658,0.8097,-0.0527,0.4591,-0.2651,0.1839,0.1118,12.84143333,77.66258500,0.46839723,1691.80000000,
2.978146,0.2060,0.0912,0.2335,-0.2651,0.1839,0.1118,12.84143333,77.66258500,0.46839723,1691.80000000,
2.979422,0.2060,0.0912,0.2335,-0.2028,0.0092,0.1216,12.84143333,77.66258500,0.46839723,1691.80000000,
2.998829,0.2060,0.0912,0.2335,-0.2798,-0.1228,0.0971,12.84143333,77.66258500,0.46839723,1691.80000000,
3.016971,0.2060,0.0912,0.2335,-0.2798,-0.1228,0.0971,12.84143333,77.66258500,0.46839723,1691.80000000,
3.018552,0.3348,0.2623,1.2371,-0.2798,-0.1228,0.0971,12.84143333,77.66258500,0.46839723,1691.80000000,
3.019947,0.3348,0.2623,1.2371,-0.2950,-0.1191,0.0843,12.84143333,77.66258500,0.46839723,1691.80000000,
3.043575,0.3348,0.2623,1.2371,-0.1888,-0.1985,0.0104,12.84143333,77.66258500,0.46839723,1691.80000000,
3.056116,0.3348,0.2623,1.2371,-0.1888,-0.1985,0.0104,12.84143333,77.66258500,0.46839723,1691.80000000,
3.057485,0.5256,-0.8601,1.4245,-0.1888,-0.1985,0.0104,12.84143333,77.66258500,0.46839723,1691.80000000,
3.059054,0.5256,-0.8601,1.4245,-0.2059,-0.2028,-0.0953,12.84143333,77.66258500,0.46839723,1691.80000000,
3.079067,0.5256,-0.8601,1.4245,-0.3445,-0.1332,-0.1228,12.84143333,77.66258500,0.46839723,1691.80000000,
3.096664,0.5256,-0.8601,1.4245,-0.3445,-0.1332,-0.1228,12.84143333,77.66258500,0.46839723,1691.80000000,
3.098160,-0.5835,-1.1947,2.3684,-0.3445,-0.1332,-0.1228,12.84143333,77.66258500,0.46839723,1691.80000000,
3.099558,-0.5835,-1.1947,2.3684,-0.3543,0.0330,-0.0403,12.84143333,77.66258500,0.46839723,1691.80000000,
3.123430,-0.5835,-1.1947,2.3684,-0.1032,0.2602,0.1319,12.84143333,77.66258500,0.46839723,1691.80000000,
3.136817,-0.5835,-1.1947,2.3684,-0.1032,0.2602,0.1319,12.84143333,77.66258500,0.46839723,1691.80000000,
3.138615,-0.7401,-1.2135,1.5213,-0.1032,0.2602,0.1319,12.84143333,77.66258500,0.46839723,1691.80000000,
3.140083,-0.7401,-1.2135,1.5213,0.0348,0.2969,0.2266,12.84143333,77.66258500,0.46839723,1691.80000000,
3.159429,-0.7401,-1.2135,1.5213,-0.1142,0.1289,0.2376,12.84143333,77.66258500,0.46839723,1691.80000000,
3.177387,-0.7401,-1.2135,1.5213,-0.1142,0.1289,0.2376,12.84143333,77.66258500,0.46839723,1691.80000000,
3.178329,0.1357,-0.4192,1.2628,-0.1142,0.1289,0.2376,12.84143333,77.66258500,0.46839723,1691.80000000,
3.179020,0.1357,-0.4192,1.2628,-0.3030,-0.0397,0.2022,12.84143333,77.66258500,0.46839723,1691.80000000,
3.204211,0.1357,-0.4192,1.2628,-0.3030,-0.0397,0.2022,12.84143333,77.66258500,0.46839723,1691.80000000,
3.206178,0.5437,-0.8004,2.1214,-0.3030,-0.0397,0.2022,12.84143333,77.66258500,0.46839723,1691.80000000,
3.207597,0.5437,-0.8004,2.1214,-0.2279,-0.2993,0.1167,12.84143333,77.66258500,0.46839723,1691.80000000,
3.223300,0.5437,-0.8004,2.1214,-0.2279,-0.2993,0.1167,12.84143333,77.66258500,0.46839723,1691.80000000,
3.224918,0.0644,-1.3203,1.6822,-0.2279,-0.2993,0.1167,12.84143333,77.66258500,0.46839723,1691.80000000,
3.237511,0.0644,-1.3203,1.6822,0.1918,-0.3213,-0.0379,12.84143333,77.66258500,0.46839723,1691.80000000,
3.243315,0.0644,-1.3203,1.6822,0.1918,-0.3213,-0.0379,12.84143333,77.66258500,0.46839723,1691.80000000,
3.245062,-0.9331,-1.2569,0.8326,0.1918,-0.3213,-0.0379,12.84143333,77.66258500,0.46839723,1691.80000000,
3.255417,-0.9331,-1.2569,0.8326,0.2657,-0.1509,0.0867,12.84143333,77.66258500,0.46839723,1691.80000000,
3.266501,-0.9331,-1.2569,0.8326,0.2657,-0.1509,0.0867,12.84143333,77.66258500,0.46839723,1691.80000000,
3.268457,-1.4381,-0.9482,0.1316,0.2657,-0.1509,0.0867,12.84143333,77.66258500,0.46839723,1691.80000000,
3.275414,-1.4381,-0.9482,0.1316,0.2327,-0.0263,0.2468,12.84143333,77.66258500,0.46839723,1691.80000000,
3.283318,-1.4381,-0.9482,0.1316,0.2327,-0.0263,0.2468,12.84143333,77.66258500,0.46839723,1691.80000000,
3.286494,-0.9454,-0.9344,-0.5159,0.2327,-0.0263,0.2468,12.84143333,77.66258500,0.46839723,1691.80000000,
3.295397,-0.9454,-0.9344,-0.5159,0.0666,0.0122,0.2608,12.84143333,77.66258500,0.46839723,1691.80000000,
3.303576,-0.9454,-0.9344,-0.5159,0.0666,0.0122,0.2608,12.84143333,77.66258500,0.46839723,1691.80000000,
3.305519,-0.2524,-1.1428,-0.7574,0.0666,0.0122,0.2608,12.84143333,77.66258500,0.46839723,1691.80000000,
3.315529,-0.2524,-1.1428,-0.7574,-0.1808,-0.0263,0.1533,12.84143333,77.66258500,0.46839723,1691.80000000,
3.323007,-0.2524,-1.1428,-0.7574,-0.1808,-0.0263,0.1533,12.84143333,77.66258500,0.46839723,1691.80000000,
3.324349,-0.0936,-1.0921,-0.4153,-0.1808,-0.0263,0.1533,12.84143333,77.66258500,0.46839723,1691.80000000,
3.335448,-0.0936,-1.0921,-0.4153,-0.3488,-0.1051,0.0861,12.84143333,77.66258500,0.46839723,1691.80000000,
3.343001,-0.0936,-1.0921,-0.4153,-0.3488,-0.1051,0.0861,12.84143333,77.66258500,0.46839723,1691.80000000,
3.344458,-0.2451,-1.1631,0.3449,-0.3488,-0.1051,0.0861,12.84143333,77.66258500,0.46839723,1691.80000000,
3.355164,-0.2451,-1.1631,0.3449,-0.3054,-0.2065,0.0996,12.84143333,77.66258500,0.46839723,1691.80000000,
3.362552,-0.2451,-1.1631,0.3449,-0.3054,-0.2065,0.0996,12.84143333,77.66258500,0.46839723,1691.80000000,
3.364057,-0.4059,-1.2370,0.8303,-0.3054,-0.2065,0.0996,12.84143333,77.66258500,0.46839723,1691.80000000,
3.376176,-0.4059,-1.2370,0.8303,-0.1026,-0.3897,0.1619,12.84143333,77.66258500,0.46839723,1691.80000000,
3.386625,-0.4059,-1.2370,0.8303,-0.1026,-0.3897,0.1619,12.84143333,77.66258500,0.46839723,1691.80000000,
3.389458,-0.3955,-1.2188,0.6951,-0.1026,-0.3897,0.1619,12.84143333,77.66258500,0.46839723,1691.80000000,
3.395210,-0.3955,-1.2188,0.6951,0.0806,-0.4502,0.2248,12.84143333,77.66258500,0.46839723,1691.80000000,
3.403655,-0.3955,-1.2188,0.6951,0.0806,-0.4502,0.2248,12.84143333,77.66258500,0.46839723,1691.80000000,
3.405307,-0.3828,-1.0036,0.2945,0.0806,-0.4502,0.2248,12.84143333,77.66258500,0.46839723,1691.80000000,
3.415597,-0.3828,-1.0036,0.2945,0.2016,-0.2987,0.2841,12.84143333,77.66258500,0.46839723,1691.80000000,
3.423391,-0.3828,-1.0036,0.2945,0.2016,-0.2987,0.2841,12.84143333,77.66258500,0.46839723,1691.80000000,
3.424819,-0.2751,-0.7875,-0.2370,0.2016,-0.2987,0.2841,12.84143333,77.66258500,0.46839723,1691.80000000,
3.437324,-0.2751,-0.7875,-0.2370,0.2303,-0.0067,0.2822,12.84143333,77.66258500,0.46839723,1691.80000000,
3.443261,-0.2751,-0.7875,-0.2370,0.2303,-0.0067,0.2822,12.84143333,77.66258500,0.46839723,1691.80000000,
3.444769,-0.0584,-0.5882,-0.9552,0.2303,-0.0067,0.2822,12.84143333,77.66258500,0.46839723,1691.80000000,
3.456910,-0.0584,-0.5882,-0.9552,0.1692,0.2541,0.2205,12.84143333,77.66258500,0.46839723,1691.80000000,
3.463103,-0.0584,-0.5882,-0.9552,0.1692,0.2541,0.2205,12.84143333,77.66258500,0.46839723,1691.80000000,
3.464701,0.0451,-0.3908,-1.6744,0.1692,0.2541,0.2205,12.84143333,77.66258500,0.46839723,1691.80000000,
3.475910,0.0451,-0.3908,-1.6744,0.0428,0.3323,0.1698,12.84143333,77.66258500,0.46839723,1691.80000000,
3.483583,0.0451,-0.3908,-1.6744,0.0428,0.3323,0.1698,12.84143333,77.66258500,0.46839723,1691.80000000,
3.485348,0.2151,-0.3085,-1.7909,0.0428,0.3323,0.1698,12.84143333,77.66258500,0.46839723,1691.80000000,
3.495772,0.2151,-0.3085,-1.7909,-0.0892,0.1808,0.1228,12.84143333,77.66258500,0.46839723,1691.80000000,
3.503698,0.2151,-0.3085,-1.7909,-0.0892,0.1808,0.1228,12.84143333,77.66258500,0.46839723,1691.80000000,
3.505563,0.3203,-0.0886,-1.4124,-0.0892,0.1808,0.1228,12.84143333,77.66258500,0.46839723,1691.80000000,
3.515201,0.3203,-0.0886,-1.4124,-0.0696,-0.0617,0.0428,12.84143333,77.66258500,0.46839723,1691.80000000,
3.522844,0.3203,-0.0886,-1.4124,-0.0696,-0.0617,0.0428,12.84143333,77.66258500,0.46839723,1691.80000000,
3.524387,0.1519,0.1185,-0.7725,-0.0696,-0.0617,0.0428,12.84143333,77.66258500,0.46839723,1691.80000000,
3.535131,0.1519,0.1185,-0.7725,0.0580,-0.2608,-0.0293,12.84143333,77.66258500,0.46839723,1691.80000000,
3.543195,0.1519,0.1185,-0.7725,0.0580,-0.2608,-0.0293,12.84143333,77.66258500,0.46839723,1691.80000000,
3.544518,-0.1235,0.0023,-0.6636,0.0580,-0.2608,-0.0293,12.84143333,77.66258500,0.46839723,1691.80000000,
3.554451,-0.1235,0.0023,-0.6636,0.1429,-0.2682,-0.0367,12.84143333,77.66258500,0.46839723,1691.80000000,
3.563727,-0.1235,0.0023,-0.6636,0.1429,-0.2682,-0.0367,12.84143333,77.66258500,0.46839723,1691.80000000,
3.565181,-0.2805,-0.1569,-0.9290,0.1429,-0.2682,-0.0367,12.84143333,77.66258500,0.46839723,1691.80000000,
3.576094,-0.2805,-0.1569,-0.9290,0.1374,-0.1564,-0.0208,12.84143333,77.66258500,0.46839723,1691.80000000,
3.583865,-0.2805,-0.1569,-0.9290,0.1374,-0.1564,-0.0208,12.84143333,77.66258500,0.46839723,1691.80000000,
3.586706,-0.5232,-0.0229,-0.9157,0.1374,-0.1564,-0.0208,12.84143333,77.66258500,0.46839723,1691.80000000,
3.595374,-0.5232,-0.0229,-0.9157,0.1246,-0.0672,0.0122,12.84143333,77.66258500,0.46839723,1691.80000000,
3.602659,-0.5232,-0.0229,-0.9157,0.1246,-0.0672,0.0122,12.84143333,77.66258500,0.46839723,1691.80000000,
3.605768,-0.6907,0.1496,-0.7606,0.1246,-0.0672,0.0122,12.84143333,77.66258500,0.46839723,1691.80000000,
3.621072,-0.6907,0.1496,-0.7606,0.1008,-0.0843,0.0544,12.84143333,77.66258500,0.46839723,1691.80000000,
3.625574,-0.6907,0.1496,-0.7606,0.1008,-0.0843,0.0544,12.84143333,77.66258500,0.46839723,1691.80000000,
3.628096,-0.6416,0.2127,-0.4668,0.1008,-0.0843,0.0544,12.84143333,77.66258500,0.46839723,1691.80000000,
3.635807,-0.6416,0.2127,-0.4668,0.1210,-0.0470,0.1051,12.84143333,77.66258500,0.46839723,1691.80000000,
3.642647,-0.6416,0.2127,-0.4668,0.1210,-0.0470,0.1051,12.84143333,77.66258500,0.46839723,1691.80000000,
3.643931,-0.3218,0.2495,0.3767,0.1210,-0.0470,0.1051,12.84143333,77.66258500,0.46839723,1691.80000000,
3.656548,-0.3218,0.2495,0.3767,0.2779,-0.0922,0.1240,12.84143333,77.66258500,0.46839723,1691.80000000,
3.663440,-0.3218,0.2495,0.3767,0.2779,-0.0922,0.1240,12.84143333,77.66258500,0.46839723,1691.80000000,
3.664720,-0.0819,0.1444,0.6172,0.2779,-0.0922,0.1240,12.84143333,77.66258500,0.46839723,1691.80000000,
3.675966,-0.0819,0.1444,0.6172,0.4349,-0.1558,0.0867,12.84143333,77.66258500,0.46839723,1691.80000000,
3.683279,-0.0819,0.1444,0.6172,0.4349,-0.1558,0.0867,12.84143333,77.66258500,0.46839723,1691.80000000,
3.685336,-0.3088,0.2169,0.3429,0.4349,-0.1558,0.0867,12.84143333,77.66258500,0.46839723,1691.80000000,
3.696147,-0.3088,0.2169,0.3429,0.4472,-0.2676,0.0757,12.84143333,77.66258500,0.46839723,1691.80000000,
3.703353,-0.3088,0.2169,0.3429,0.4472,-0.2676,0.0757,12.84143333,77.66258500,0.46839723,1691.80000000,
3.705168,-0.1843,0.0466,0.2125,0.4472,-0.2676,0.0757,12.84143333,77.66258500,0.46839723,1691.80000000,
3.715393,-0.1843,0.0466,0.2125,0.3012,-0.3433,0.0342,12.84143333,77.66258500,0.46839723,1691.80000000,
3.723439,-0.1843,0.0466,0.2125,0.3012,-0.3433,0.0342,12.84143333,77.66258500,0.46839723,1691.80000000,
3.725099,0.2367,-0.2590,0.7135,0.3012,-0.3433,0.0342,12.84143333,77.66258500,0.46839723,1691.80000000,
3.735347,0.2367,-0.2590,0.7135,0.1014,-0.4050,-0.0336,12.84143333,77.66258500,0.46839723,1691.80000000,
3.744330,0.2367,-0.2590,0.7135,0.1014,-0.4050,-0.0336,12.84143333,77.66258500,0.46839723,1691.80000000,
3.745718,0.2435,-0.3651,1.4280,0.1014,-0.4050,-0.0336,12.84143333,77.66258500,0.46839723,1691.80000000,
3.755569,0.2435,-0.3651,1.4280,0.0574,-0.3506,-0.0415,12.84143333,77.66258500,0.46839723,1691.80000000,
3.765407,0.2435,-0.3651,1.4280,0.0574,-0.3506,-0.0415,12.84143333,77.66258500,0.46839723,1691.80000000,
3.767377,-0.1086,-0.2206,2.3842,0.0574,-0.3506,-0.0415,12.84143333,77.66258500,0.46839723,1691.80000000,
3.776071,-0.1086,-0.2206,2.3842,0.2902,-0.1961,-0.0073,12.84143333,77.66258500,0.46839723,1691.80000000,
3.785795,-0.1086,-0.2206,2.3842,0.2902,-0.1961,-0.0073,12.84143333,77.66258500,0.46839723,1691.80000000,
3.788772,-0.1849,-0.1717,2.6859,0.2902,-0.1961,-0.0073,12.84143333,77.66258500,0.46839723,1691.80000000,
3.794581,-0.1849,-0.1717,2.6859,0.6610,-0.0776,-0.0324,12.84143333,77.66258500,0.46839723,1691.80000000,
3.803643,-0.1849,-0.1717,2.6859,0.6610,-0.0776,-0.0324,12.84143333,77.66258500,0.46839723,1691.80000000,
3.806210,-0.0267,-0.5873,1.4254,0.6610,-0.0776,-0.0324,12.84143333,77.66258500,0.46839723,1691.80000000,
3.815538,-0.0267,-0.5873,1.4254,0.6762,-0.0959,-0.1313,12.84143333,77.66258500,0.46839723,1691.80000000,
3.823616,-0.0267,-0.5873,1.4254,0.6762,-0.0959,-0.1313,12.84143333,77.66258500,0.46839723,1691.80000000,
3.825205,0.2819,-0.7775,-0.3454,0.6762,-0.0959,-0.1313,12.84143333,77.66258500,0.46839723,1691.80000000,
3.836553,0.2819,-0.7775,-0.3454,0.1894,-0.0922,-0.1778,12.84143333,77.66258500,0.46839723,1691.80000000,
3.843359,0.2819,-0.7775,-0.3454,0.1894,-0.0922,-0.1778,12.84143333,77.66258500,0.46839723,1691.80000000,
3.847146,0.5247,-0.7953,-1.1047,0.1894,-0.0922,-0.1778,12.84143333,77.66258500,0.46839723,1691.80000000,
3.855794,0.5247,-0.7953,-1.1047,-0.5113,-0.0031,-0.1759,12.84143333,77.66258500,0.46839723,1691.80000000,
3.863673,0.5247,-0.7953,-1.1047,-0.5113,-0.0031,-0.1759,12.84143333,77.66258500,0.46839723,1691.80000000,
3.864914,0.8864,-0.6583,0.0418,-0.5113,-0.0031,-0.1759,12.84143333,77.66258500,0.46839723,1691.80000000,
3.875785,0.8864,-0.6583,0.0418,-0.7825,0.2291,-0.2138,12.84143333,77.66258500,0.46839723,1691.80000000,
3.883503,0.8864,-0.6583,0.0418,-0.7825,0.2291,-0.2138,12.84143333,77.66258500,0.46839723,1691.80000000,
3.885162,0.7417,-0.3543,2.4618,-0.7825,0.2291,-0.2138,12.84143333,77.66258500,0.46839723,1691.80000000,
3.894845,0.7417,-0.3543,2.4618,-0.3409,0.2083,-0.2834,12.84143333,77.66258500,0.46839723,1691.80000000,
3.903662,0.7417,-0.3543,2.4618,-0.3409,0.2083,-0.2834,12.84143333,77.66258500,0.46839723,1691.80000000,
3.905449,0.4543,-0.4793,3.0445,-0.3409,0.2083,-0.2834,12.84143333,77.66258500,0.46839723,1691.80000000,
3.915762,0.4543,-0.4793,3.0445,0.3488,0.0672,-0.3702,12.84143333,77.66258500,0.46839723,1691.80000000,
3.923893,0.4543,-0.4793,3.0445,0.3488,0.0672,-0.3702,12.84143333,77.66258500,0.46839723,1691.80000000,
3.925405,-0.0618,-0.7716,1.2675,0.3488,0.0672,-0.3702,12.84143333,77.66258500,0.46839723,1691.80000000,
3.936446,-0.0618,-0.7716,1.2675,0.5913,-0.0269,-0.3464,12.84143333,77.66258500,0.46839723,1691.80000000,
3.943037,-0.0618,-0.7716,1.2675,0.5913,-0.0269,-0.3464,12.84143333,77.66258500,0.46839723,1691.80000000,
3.944287,-0.5822,-0.5933,-0.6679,0.5913,-0.0269,-0.3464,12.84143333,77.66258500,0.46839723,1691.80000000,
3.955743,-0.5822,-0.5933,-0.6679,0.3793,0.0489,-0.1826,12.84143333,77.66258500,0.46839723,1691.80000000,
3.965485,-0.5822,-0.5933,-0.6679,0.3793,0.0489,-0.1826,12.84143333,77.66258500,0.46839723,1691.80000000,
3.967440,-0.4900,-0.5388,-1.1850,0.3793,0.0489,-0.1826,12.84143333,77.66258500,0.46839723,1691.80000000,
3.975956,-0.4900,-0.5388,-1.1850,0.0953,0.1448,-0.0593,12.84143333,77.66258500,0.46839723,1691.80000000,
3.983642,-0.4900,-0.5388,-1.1850,0.0953,0.1448,-0.0593,12.84143333,77.66258500,0.46839723,1691.80000000,
3.985463,0.1164,-0.7021,-0.6500,0.0953,0.1448,-0.0593,12.84143333,77.66258500,0.46839723,1691.80000000,
3.995241,0.1164,-0.7021,-0.6500,-0.0098,0.1839,-0.0464,12.84143333,77.66258500,0.46839723,1691.80000000,
4.005008,0.1164,-0.7021,-0.6500,-0.0098,0.1839,-0.0464,12.84143333,77.66258500,0.46839723,1691.80000000,
4.007353,0.6403,-0.7903,-0.1442,-0.0098,0.1839,-0.0464,12.84143333,77.66258500,0.46839723,1691.80000000,
4.015805,0.6403,-0.7903,-0.1442,0.0195,0.1307,-0.0806,12.84143333,77.66258500,0.46839723,1691.80000000,
4.023132,0.6403,-0.7903,-0.1442,0.0195,0.1307,-0.0806,12.84143333,77.66258500,0.46839723,1691.80000000,
4.024656,0.8450,-0.5260,-0.0588,0.0195,0.1307,-0.0806,12.84143333,77.66258500,0.46839723,1691.80000000,
4.034519,0.8450,-0.5260,-0.0588,0.1197,0.0751,-0.1381,12.84143333,77.66258500,0.46839723,1691.80000000,
4.043569,0.8450,-0.5260,-0.0588,0.1197,0.0751,-0.1381,12.84143333,77.66258500,0.46839723,1691.80000000,
4.045292,0.7782,-0.3143,-0.2505,0.1197,0.0751,-0.1381,12.84143333,77.66258500,0.46839723,1691.80000000,
4.055802,0.7782,-0.3143,-0.2505,0.2217,0.0452,-0.2101,12.84143333,77.66258500,0.46839723,1691.80000000,
4.063870,0.7782,-0.3143,-0.2505,0.2217,0.0452,-0.2101,12.84143333,77.66258500,0.46839723,1691.80000000,
4.065137,0.4190,-0.2505,-0.7784,0.2217,0.0452,-0.2101,12.84143333,77.66258500,0.46839723,1691.80000000,
4.075232,0.4190,-0.2505,-0.7784,0.2382,0.1185,-0.2505,12.84143333,77.66258500,0.46839723,1691.80000000,
4.082676,0.4190,-0.2505,-0.7784,0.2382,0.1185,-0.2505,12.84143333,77.66258500,0.46839723,1691.80000000,
4.084594,0.0495,-0.2836,-1.4823,0.2382,0.1185,-0.2505,12.84143333,77.66258500,0.46839723,1691.80000000,
4.095318,0.0495,-0.2836,-1.4823,0.1521,0.2083,-0.2382,12.84143333,77.66258500,0.46839723,1691.80000000,
4.103689,0.0495,-0.2836,-1.4823,0.1521,0.2083,-0.2382,12.84143333,77.66258500,0.46839723,1691.80000000,
4.105652,-0.1877,-0.2473,-1.8237,0.1521,0.2083,-0.2382,12.84143333,77.66258500,0.46839723,1691.80000000,
4.119476,-0.1877,-0.2473,-1.8237,0.0232,0.2767,-0.1906,12.84143333,77.66258500,0.46839723,1691.80000000,
4.123447,-0.1877,-0.2473,-1.8237,0.0232,0.2767,-0.1906,12.84143333,77.66258500,0.46839723,1691.80000000,
4.125034,-0.4010,-0.0951,-1.5198,0.0232,0.2767,-0.1906,12.84143333,77.66258500,0.46839723,1691.80000000,
4.134797,-0.4010,-0.0951,-1.5198,-0.0086,0.2541,-0.0947,12.84143333,77.66258500,0.46839723,1691.80000000,
4.143526,-0.4010,-0.0951,-1.5198,-0.0086,0.2541,-0.0947,12.84143333,77.66258500,0.46839723,1691.80000000,
4.145212,-0.2842,-0.1335,-1.0012,-0.0086,0.2541,-0.0947,12.84143333,77.66258500,0.46839723,1691.80000000,
4.155719,-0.2842,-0.1335,-1.0012,0.0702,0.2114,-0.0385,12.84143333,77.66258500,0.46839723,1691.80000000,
4.164103,-0.2842,-0.1335,-1.0012,0.0702,0.2114,-0.0385,12.84143333,77.66258500,0.46839723,1691.80000000,
4.166059,0.0571,-0.1348,-0.9327,0.0702,0.2114,-0.0385,12.84143333,77.66258500,0.46839723,1691.80000000,
4.175660,0.0571,-0.1348,-0.9327,0.1045,0.1619,-0.0586,12.84143333,77.66258500,0.46839723,1691.80000000,
4.183537,0.0571,-0.1348,-0.9327,0.1045,0.1619,-0.0586,12.84143333,77.66258500,0.46839723,1691.80000000,
4.186064,0.2340,0.1160,-1.3254,0.1045,0.1619,-0.0586,12.84143333,77.66258500,0.46839723,1691.80000000,
4.195528,0.2340,0.1160,-1.3254,0.0238,0.1600,-0.0977,12.84143333,77.66258500,0.46839723,1691.80000000,
4.204129,0.2340,0.1160,-1.3254,0.0238,0.1600,-0.0977,12.84143333,77.66258500,0.46839723,1691.80000000,
4.206075,0.0717,0.2368,-1.3472,0.0238,0.1600,-0.0977,12.84143333,77.66258500,0.46839723,1691.80000000,
4.216026,0.0717,0.2368,-1.3472,-0.0916,0.1148,-0.1148,12.84143333,77.66258500,0.46839723,1691.80000000,
4.223624,0.0717,0.2368,-1.3472,-0.0916,0.1148,-0.1148,12.84143333,77.66258500,0.46839723,1691.80000000,
4.224966,-0.2592,0.2173,-0.9779,-0.0916,0.1148,-0.1148,12.84143333,77.66258500,0.46839723,1691.80000000,
4.237335,-0.2592,0.2173,-0.9779,-0.1600,0.0977,-0.0556,12.84143333,77.66258500,0.46839723,1691.80000000,
4.247523,-0.2592,0.2173,-0.9779,-0.1600,0.0977,-0.0556,12.84143333,77.66258500,0.46839723,1691.80000000,
4.249168,-0.5280,0.1909,-0.3953,-0.1600,0.0977,-0.0556,12.84143333,77.66258500,0.46839723,1691.80000000,
4.255256,-0.5280,0.1909,-0.3953,-0.1240,0.1436,0.0623,12.84143333,77.66258500,0.46839723,1691.80000000,
4.264326,-0.5280,0.1909,-0.3953,-0.1240,0.1436,0.0623,12.84143333,77.66258500,0.46839723,1410.90000000,
4.265427,-0.6046,0.3654,0.0238,-0.1240,0.1436,0.0623,12.84223167,77.66280000,0.00000000,1410.90000000,
4.274434,-0.6046,0.3654,0.0238,0.0263,0.1558,0.1894,12.84223167,77.66280000,0.00000000,1410.90000000,
4.283997,-0.6046,0.3654,0.0238,0.0263,0.1558,0.1894,12.84223167,77.66280000,0.00000000,1410.90000000,
4.285597,-0.4881,0.7362,0.0897,0.0263,0.1558,0.1894,12.84223167,77.66280000,0.00000000,1410.90000000,
4.295478,-0.4881,0.7362,0.0897,0.1717,0.0929,0.2724,12.84223167,77.66280000,0.00000000,1410.90000000,
4.304575,-0.4881,0.7362,0.0897,0.1717,0.0929,0.2724,12.84223167,77.66280000,0.00000000,1410.90000000,
4.306902,-0.2711,0.9817,-0.2446,0.1717,0.0929,0.2724,12.84223167,77.66280000,0.00000000,1410.90000000,
4.318575,-0.2711,0.9817,-0.2446,0.2272,0.0672,0.3060,12.84223167,77.66280000,0.00000000,1410.90000000,
4.322631,-0.2711,0.9817,-0.2446,0.2272,0.0672,0.3060,12.84223167,77.66280000,0.00000000,1410.90000000,
4.324222,-0.1065,1.1796,-0.3229,0.2272,0.0672,0.3060,12.84223167,77.66280000,0.00000000,1410.90000000,
4.335612,-0.1065,1.1796,-0.3229,0.2095,0.0385,0.2724,12.84223167,77.66280000,0.00000000,1410.90000000,
4.343579,-0.1065,1.1796,-0.3229,0.2095,0.0385,0.2724,12.84223167,77.66280000,0.00000000,1410.90000000,
4.344913,0.2171,1.1389,-0.1396,0.2095,0.0385,0.2724,12.84223167,77.66280000,0.00000000,1410.90000000,
4.359891,0.2171,1.1389,-0.1396,0.1460,0.0257,0.1588,12.84223167,77.66280000,0.00000000,1410.90000000,
4.363493,0.2171,1.1389,-0.1396,0.1460,0.0257,0.1588,12.84223167,77.66280000,0.00000000,1410.90000000,
4.364638,0.5826,0.6980,0.2352,0.1460,0.0257,0.1588,12.84223167,77.66280000,0.00000000,1410.90000000,
4.374430,0.5826,0.6980,0.2352,0.0538,0.0666,0.0324,12.84223167,77.66280000,0.00000000,1410.90000000,
4.382869,0.5826,0.6980,0.2352,0.0538,0.0666,0.0324,12.84223167,77.66280000,0.00000000,1410.90000000,
4.388116,0.6138,0.1121,0.4787,0.0538,0.0666,0.0324,12.84223167,77.66280000,0.00000000,1410.90000000,
4.395692,0.6138,0.1121,0.4787,-0.0800,0.1484,-0.0330,12.84223167,77.66280000,0.00000000,1410.90000000,
4.403284,0.6138,0.1121,0.4787,-0.0800,0.1484,-0.0330,12.84223167,77.66280000,0.00000000,1410.90000000,
4.404375,0.0185,-0.2123,0.9591,-0.0800,0.1484,-0.0330,12.84223167,77.66280000,0.00000000,1410.90000000,
4.418632,0.0185,-0.2123,0.9591,-0.1063,0.2651,0.0501,12.84223167,77.66280000,0.00000000,1410.90000000,
4.423016,0.0185,-0.2123,0.9591,-0.1063,0.2651,0.0501,12.84223167,77.66280000,0.00000000,1410.90000000,
4.424399,-1.0505,-0.0083,1.7727,-0.1063,0.2651,0.0501,12.84223167,77.66280000,0.00000000,1410.90000000,
4.435739,-1.0505,-0.0083,1.7727,0.1319,0.1826,0.2810,12.84223167,77.66280000,0.00000000,1410.90000000,
4.443978,-1.0505,-0.0083,1.7727,0.1319,0.1826,0.2810,12.84223167,77.66280000,0.00000000,1410.90000000,
4.445380,-0.9972,-0.2411,2.1034,0.1319,0.1826,0.2810,12.84223167,77.66280000,0.00000000,1410.90000000,
4.455723,-0.9972,-0.2411,2.1034,0.3519,-0.1405,0.3720,12.84223167,77.66280000,0.00000000,1410.90000000,
4.465330,-0.9972,-0.2411,2.1034,0.3519,-0.1405,0.3720,12.84223167,77.66280000,0.00000000,1410.90000000,
4.467232,-0.0880,-0.7016,1.2842,0.3519,-0.1405,0.3720,12.84223167,77.66280000,0.00000000,1410.90000000,
4.475521,-0.0880,-0.7016,1.2842,0.1069,-0.4258,0.2566,12.84223167,77.66280000,0.00000000,1410.90000000,
4.483138,-0.0880,-0.7016,1.2842,0.1069,-0.4258,0.2566,12.84223167,77.66280000,0.00000000,1410.90000000,
4.485083,0.6008,-0.9192,1.0461,0.1069,-0.4258,0.2566,12.84223167,77.66280000,0.00000000,1410.90000000,
4.495499,0.6008,-0.9192,1.0461,-0.3390,-0.4209,0.0910,12.84223167,77.66280000,0.00000000,1410.90000000,
4.503075,0.6008,-0.9192,1.0461,-0.3390,-0.4209,0.0910,12.84223167,77.66280000,0.00000000,1410.90000000,
4.505074,0.2315,-0.9317,2.6085,-0.3390,-0.4209,0.0910,12.84223167,77.66280000,0.00000000,1410.90000000,
4.515538,0.2315,-0.9317,2.6085,-0.3622,-0.3610,0.0116,12.84223167,77.66280000,0.00000000,1410.90000000,
4.524320,0.2315,-0.9317,2.6085,-0.3622,-0.3610,0.0116,12.84223167,77.66280000,0.00000000,1410.90000000,
4.525941,-0.4417,-1.2500,4.1526,-0.3622,-0.3610,0.0116,12.84223167,77.66280000,0.00000000,1410.90000000,
4.536404,-0.4417,-1.2500,4.1526,0.1014,-0.2413,0.0312,12.84223167,77.66280000,0.00000000,1410.90000000,
4.543311,-0.4417,-1.2500,4.1526,0.1014,-0.2413,0.0312,12.84223167,77.66280000,0.00000000,1410.90000000,
4.544572,-1.0998,-1.6361,3.4602,0.1014,-0.2413,0.0312,12.84223167,77.66280000,0.00000000,1410.90000000,
4.555280,-1.0998,-1.6361,3.4602,0.5492,0.0941,0.2010,12.84223167,77.66280000,0.00000000,1410.90000000,
4.562476,-1.0998,-1.6361,3.4602,0.5492,0.0941,0.2010,12.84223167,77.66280000,0.00000000,1410.90000000,
4.563754,-1.3528,-1.4320,1.4925,0.5492,0.0941,0.2010,12.84223167,77.66280000,0.00000000,1410.90000000,
4.574896,-1.3528,-1.4320,1.4925,0.6267,0.2944,0.3879,12.84223167,77.66280000,0.00000000,1410.90000000,
4.583315,-1.3528,-1.4320,1.4925,0.6267,0.2944,0.3879,12.84223167,77.66280000,0.00000000,1410.90000000,
4.585444,-0.6681,-0.7699,-0.3663,0.6267,0.2944,0.3879,12.84223167,77.66280000,0.00000000,1410.90000000,
4.595371,-0.6681,-0.7699,-0.3663,0.4019,0.2737,0.4325,12.84223167,77.66280000,0.00000000,1410.90000000,
4.603409,-0.6681,-0.7699,-0.3663,0.4019,0.2737,0.4325,12.84223167,77.66280000,0.00000000,1410.90000000,
4.605249,0.2006,-0.1991,-1.0037,0.4019,0.2737,0.4325,12.84223167,77.66280000,0.00000000,1410.90000000,
4.619034,0.2006,-0.1991,-1.0037,0.1093,0.1655,0.3152,12.84223167,77.66280000,0.00000000,1410.90000000,
4.623486,0.2006,-0.1991,-1.0037,0.1093,0.1655,0.3152,12.84223167,77.66280000,0.00000000,1410.90000000,
4.624757,0.7009,-0.1919,-0.9976,0.1093,0.1655,0.3152,12.84223167,77.66280000,0.00000000,1410.90000000,
4.636056,0.7009,-0.1919,-0.9976,-0.1619,0.0073,0.1301,12.84223167,77.66280000,0.00000000,1410.90000000,
4.643420,0.7009,-0.1919,-0.9976,-0.1619,0.0073,0.1301,12.84223167,77.66280000,0.00000000,1410.90000000,
4.644564,0.5588,-0.7072,-0.7418,-0.1619,0.0073,0.1301,12.84223167,77.66280000,0.00000000,1410.90000000,
4.655473,0.5588,-0.7072,-0.7418,-0.3128,-0.0739,0.0837,12.84223167,77.66280000,0.00000000,1410.90000000,
4.662830,0.5588,-0.7072,-0.7418,-0.3128,-0.0739,0.0837,12.84223167,77.66280000,0.00000000,1410.90000000,
4.664009,0.3070,-0.9700,-0.4110,-0.3128,-0.0739,0.0837,12.84223167,77.66280000,0.00000000,1410.90000000,
4.675033,0.3070,-0.9700,-0.4110,-0.3476,-0.2004,0.1240,12.84223167,77.66280000,0.00000000,1410.90000000,
4.682766,0.3070,-0.9700,-0.4110,-0.3476,-0.2004,0.1240,12.84223167,77.66280000,0.00000000,1410.90000000,
4.684444,0.3402,-0.9389,-0.0655,-0.3476,-0.2004,0.1240,12.84223167,77.66280000,0.00000000,1410.90000000,
4.694634,0.3402,-0.9389,-0.0655,-0.2572,-0.2572,0.1735,12.84223167,77.66280000,0.00000000,1410.90000000,
4.703653,0.3402,-0.9389,-0.0655,-0.2572,-0.2572,0.1735,12.84223167,77.66280000,0.00000000,1410.90000000,
4.705434,0.3913,-0.8246,0.0326,-0.2572,-0.2572,0.1735,12.84223167,77.66280000,0.00000000,1410.90000000,
4.719462,0.3913,-0.8246,0.0326,-0.1020,-0.1863,0.1851,12.84223167,77.66280000,0.00000000,1410.90000000,
4.723511,0.3913,-0.8246,0.0326,-0.1020,-0.1863,0.1851,12.84223167,77.66280000,0.00000000,1410.90000000,
4.724858,0.2314,-0.7628,-0.3396,-0.1020,-0.1863,0.1851,12.84223167,77.66280000,0.00000000,1410.90000000,
4.736518,0.2314,-0.7628,-0.3396,0.0360,0.0031,0.2016,12.84223167,77.66280000,0.00000000,1410.90000000,
4.743713,0.2314,-0.7628,-0.3396,0.0360,0.0031,0.2016,12.84223167,77.66280000,0.00000000,1410.90000000,
4.745078,0.1823,-0.7908,-0.9932,0.0360,0.0031,0.2016,12.84223167,77.66280000,0.00000000,1410.90000000,
4.754954,0.1823,-0.7908,-0.9932,0.1118,0.1778,0.2095,12.84223167,77.66280000,0.00000000,1410.90000000,
4.762782,0.1823,-0.7908,-0.9932,0.1118,0.1778,0.2095,12.84223167,77.66280000,0.00000000,1410.90000000,
4.764741,0.3709,-0.8554,-1.7950,0.1118,0.1778,0.2095,12.84223167,77.66280000,0.00000000,1410.90000000,
4.774822,0.3709,-0.8554,-1.7950,0.0867,0.2016,0.1729,12.84223167,77.66280000,0.00000000,1410.90000000,
4.782817,0.3709,-0.8554,-1.7950,0.0867,0.2016,0.1729,12.84223167,77.66280000,0.00000000,1410.90000000,
4.784511,0.4462,-0.4925,-2.2621,0.0867,0.2016,0.1729,12.84223167,77.66280000,0.00000000,1410.90000000,
4.794797,0.4462,-0.4925,-2.2621,-0.0110,0.1649,0.1313,12.84223167,77.66280000,0.00000000,1410.90000000,
4.802906,0.4462,-0.4925,-2.2621,-0.0110,0.1649,0.1313,12.84223167,77.66280000,0.00000000,1410.90000000,
4.804952,0.4753,-0.2615,-2.3284,-0.0110,0.1649,0.1313,12.84223167,77.66280000,0.00000000,1410.90000000,
4.815389,0.4753,-0.2615,-2.3284,-0.1063,0.1246,0.0739,12.84223167,77.66280000,0.00000000,1410.90000000,
4.824048,0.4753,-0.2615,-2.3284,-0.1063,0.1246,0.0739,12.84223167,77.66280000,0.00000000,1410.90000000,
4.825717,0.4917,-0.0932,-2.0465,-0.1063,0.1246,0.0739,12.84223167,77.66280000,0.00000000,1410.90000000,
4.835692,0.4917,-0.0932,-2.0465,-0.1643,0.0232,-0.0043,12.84223167,77.66280000,0.00000000,1410.90000000,
4.842964,0.4917,-0.0932,-2.0465,-0.1643,0.0232,-0.0043,12.84223167,77.66280000,0.00000000,1410.90000000,
4.844257,0.4173,-0.0208,-1.7916,-0.1643,0.0232,-0.0043,12.84223167,77.66280000,0.00000000,1410.90000000,
4.854757,0.4173,-0.0208,-1.7916,-0.2114,-0.1142,-0.0507,12.84223167,77.66280000,0.00000000,1410.90000000,
4.863477,0.4173,-0.0208,-1.7916,-0.2114,-0.1142,-0.0507,12.84223167,77.66280000,0.00000000,1410.90000000,
4.865022,0.3086,0.0130,-1.1657,-0.2114,-0.1142,-0.0507,12.84223167,77.66280000,0.00000000,1410.90000000,
4.875339,0.3086,0.0130,-1.1657,-0.1802,-0.1814,-0.0605,12.84223167,77.66280000,0.00000000,1410.90000000,
4.883041,0.3086,0.0130,-1.1657,-0.1802,-0.1814,-0.0605,12.84223167,77.66280000,0.00000000,1410.90000000,
4.884704,0.0196,0.0434,-0.4385,-0.1802,-0.1814,-0.0605,12.84223167,77.66280000,0.00000000,1410.90000000,
4.895779,0.0196,0.0434,-0.4385,-0.0629,-0.1491,-0.0397,12.84223167,77.66280000,0.00000000,1410.90000000,
4.903967,0.0196,0.0434,-0.4385,-0.0629,-0.1491,-0.0397,12.84223167,77.66280000,0.00000000,1410.90000000,
4.905688,-0.1779,0.0387,-0.0825,-0.0629,-0.1491,-0.0397,12.84223167,77.66280000,0.00000000,1410.90000000,
4.919481,-0.1779,0.0387,-0.0825,0.0947,-0.0238,0.0134,12.84223167,77.66280000,0.00000000,1410.90000000,
4.923560,-0.1779,0.0387,-0.0825,0.0947,-0.0238,0.0134,12.84223167,77.66280000,0.00000000,1410.90000000,
4.925137,-0.1591,0.2116,-0.3283,0.0947,-0.0238,0.0134,12.84223167,77.66280000,0.00000000,1410.90000000,
4.935867,-0.1591,0.2116,-0.3283,0.1570,-0.0348,0.0281,12.84223167,77.66280000,0.00000000,1410.90000000,
4.944200,-0.1591,0.2116,-0.3283,0.1570,-0.0348,0.0281,12.84223167,77.66280000,0.00000000,1410.90000000,
4.945488,0.2901,0.3430,-0.6171,0.1570,-0.0348,0.0281,12.84223167,77.66280000,0.00000000,1410.90000000,
4.954960,0.2901,0.3430,-0.6171,0.0281,-0.1185,-0.0483,12.84223167,77.66280000,0.00000000,1410.90000000,
4.963365,0.2901,0.3430,-0.6171,0.0281,-0.1185,-0.0483,12.84223167,77.66280000,0.00000000,1410.90000000,
4.964658,0.0510,0.4761,-0.2242,0.0281,-0.1185,-0.0483,12.84223167,77.66280000,0.00000000,1410.90000000,
4.974969,0.0510,0.4761,-0.2242,-0.0941,-0.1130,-0.0330,12.84223167,77.66280000,0.00000000,1410.90000000,
4.984048,0.0510,0.4761,-0.2242,-0.0941,-0.1130,-0.0330,12.84223167,77.66280000,0.00000000,1410.90000000,
4.985711,-0.2316,-0.0053,1.2359,-0.0941,-0.1130,-0.0330,12.84223167,77.66280000,0.00000000,1410.90000000,
4.994361,-0.2316,-0.0053,1.2359,-0.0525,-0.1558,0.0495,12.84223167,77.66280000,0.00000000,1410.90000000,
5.004348,-0.2316,-0.0053,1.2359,-0.0525,-0.1558,0.0495,12.84223167,77.66280000,0.00000000,1410.90000000,
5.006194,0.0337,-0.4747,2.4204,-0.0525,-0.1558,0.0495,12.84223167,77.66280000,0.00000000,1410.90000000,
5.018802,0.0337,-0.4747,2.4204,0.1026,-0.3012,0.0623,12.84223167,77.66280000,0.00000000,1410.90000000,
5.023712,0.0337,-0.4747,2.4204,0.1026,-0.3012,0.0623,12.84223167,77.66280000,0.00000000,1410.90000000,
5.025197,0.5792,-0.5474,2.6815,0.1026,-0.3012,0.0623,12.84223167,77.66280000,0.00000000,1410.90000000,
5.035904,0.5792,-0.5474,2.6815,0.1991,-0.3280,-0.0208,12.84223167,77.66280000,0.00000000,1410.90000000,
5.042577,0.5792,-0.5474,2.6815,0.1991,-0.3280,-0.0208,12.84223167,77.66280000,0.00000000,1410.90000000,
5.043781,0.6461,-0.4061,2.2211,0.1991,-0.3280,-0.0208,12.84223167,77.66280000,0.00000000,1410.90000000,
5.055761,0.6461,-0.4061,2.2211,0.2004,-0.2456,-0.0886,12.84223167,77.66280000,0.00000000,1410.90000000,
5.065277,0.6461,-0.4061,2.2211,0.2004,-0.2456,-0.0886,12.84223167,77.66280000,0.00000000,1410.90000000,
5.066964,0.4441,-0.3727,1.7423,0.2004,-0.2456,-0.0886,12.84223167,77.66280000,0.00000000,1410.90000000,
5.075466,0.4441,-0.3727,1.7423,0.1026,-0.2230,-0.1625,12.84223167,77.66280000,0.00000000,1410.90000000,
5.082888,0.4441,-0.3727,1.7423,0.1026,-0.2230,-0.1625,12.84223167,77.66280000,0.00000000,1410.90000000,
5.084903,0.6110,-0.5312,1.5234,0.1026,-0.2230,-0.1625,12.84223167,77.66280000,0.00000000,1410.90000000,
5.094775,0.6110,-0.5312,1.5234,-0.0709,-0.2627,-0.2431,12.84223167,77.66280000,0.00000000,1410.90000000,
5.104383,0.6110,-0.5312,1.5234,-0.0709,-0.2627,-0.2431,12.84223167,77.66280000,0.00000000,1410.90000000,
5.110048,1.0727,-0.8408,1.8821,-0.0709,-0.2627,-0.2431,12.84223167,77.66280000,0.00000000,1410.90000000,
5.116306,1.0727,-0.8408,1.8821,-0.1692,-0.2211,-0.3207,12.84223167,77.66280000,0.00000000,1410.90000000,
5.124611,1.0727,-0.8408,1.8821,-0.1692,-0.2211,-0.3207,12.84223167,77.66280000,0.00000000,1410.90000000,
5.126217,0.8268,-0.7054,2.7354,-0.1692,-0.2211,-0.3207,12.84223167,77.66280000,0.00000000,1410.90000000,
5.137434,0.8268,-0.7054,2.7354,0.1295,-0.0275,-0.3311,12.84223167,77.66280000,0.00000000,1410.90000000,
5.143163,0.8268,-0.7054,2.7354,0.1295,-0.0275,-0.3311,12.84223167,77.66280000,0.00000000,1410.90000000,
5.144710,0.2978,-0.6803,3.0300,0.1295,-0.0275,-0.3311,12.84223167,77.66280000,0.00000000,1410.90000000,
5.155542,0.2978,-0.6803,3.0300,0.6585,0.0953,-0.3329,12.84223167,77.66280000,0.00000000,1410.90000000,
5.165502,0.2978,-0.6803,3.0300,0.6585,0.0953,-0.3329,12.84223167,77.66280000,0.00000000,1410.90000000,
5.167511,0.0730,-0.9721,1.0999,0.6585,0.0953,-0.3329,12.84223167,77.66280000,0.00000000,1410.90000000,
5.174846,0.0730,-0.9721,1.0999,0.8216,0.0739,-0.3427,12.84223167,77.66280000,0.00000000,1410.90000000,
5.185704,0.0730,-0.9721,1.0999,0.8216,0.0739,-0.3427,12.84223167,77.66280000,0.00000000,1410.90000000,
5.187868,-0.0374,-0.6977,-1.2334,0.8216,0.0739,-0.3427,12.84223167,77.66280000,0.00000000,1410.90000000,
5.195218,-0.0374,-0.6977,-1.2334,0.4447,-0.0183,-0.3231,12.84223167,77.66280000,0.00000000,1410.90000000,
5.205149,-0.0374,-0.6977,-1.2334,0.4447,-0.0183,-0.3231,12.84223167,77.66280000,0.00000000,1410.90000000,
5.206934,0.1268,-0.2938,-2.1340,0.4447,-0.0183,-0.3231,12.84223167,77.66280000,0.00000000,1410.90000000,
5.219134,0.1268,-0.2938,-2.1340,-0.0635,-0.0476,-0.3867,12.84223167,77.66280000,0.00000000,1410.90000000,
5.224636,0.1268,-0.2938,-2.1340,-0.0635,-0.0476,-0.3867,12.84223167,77.66280000,0.00000000,1410.90000000,
5.226780,0.4468,-0.5292,-1.3272,-0.0635,-0.0476,-0.3867,12.84223167,77.66280000,0.00000000,1410.90000000,
5.234901,0.4468,-0.5292,-1.3272,-0.4191,-0.0648,-0.4942,12.84223167,77.66280000,0.00000000,1410.90000000,
5.242730,0.4468,-0.5292,-1.3272,-0.4191,-0.0648,-0.4942,12.84223167,77.66280000,0.00000000,1410.90000000,
5.244815,0.3584,-0.8740,-0.2534,-0.4191,-0.0648,-0.4942,12.84223167,77.66280000,0.00000000,1410.90000000,
5.254964,0.3584,-0.8740,-0.2534,-0.5253,-0.0721,-0.5241,12.84223167,77.66280000,0.00000000,1410.90000000,
5.263259,0.3584,-0.8740,-0.2534,-0.5253,-0.0721,-0.5241,12.84223167,77.66280000,0.00000000,1410.90000000,
5.263981,-0.0302,-0.9126,0.6294,-0.5253,-0.0721,-0.5241,12.84223167,77.66280000,0.00000000,1410.90000000,
5.274941,-0.0302,-0.9126,0.6294,-0.3836,-0.0702,-0.4117,12.84223167,77.66280000,0.00000000,1386.90000000,
5.283007,-0.0302,-0.9126,0.6294,-0.3836,-0.0702,-0.4117,12.84233333,77.66281500,0.00000000,1386.90000000,
5.285069,-0.2041,-0.7545,0.6114,-0.3836,-0.0702,-0.4117,12.84233333,77.66281500,0.00000000,1386.90000000,
5.295533,-0.2041,-0.7545,0.6114,-0.0721,-0.1741,-0.2584,12.84233333,77.66281500,0.00000000,1386.90000000,
5.303843,-0.2041,-0.7545,0.6114,-0.0721,-0.1741,-0.2584,12.84233333,77.66281500,0.00000000,1386.90000000,
5.306407,-0.0871,-0.5659,0.0267,-0.0721,-0.1741,-0.2584,12.84233333,77.66281500,0.00000000,1386.90000000,
5.316074,-0.0871,-0.5659,0.0267,0.1203,-0.2975,-0.1851,12.84233333,77.66281500,0.00000000,1386.90000000,
5.323176,-0.0871,-0.5659,0.0267,0.1203,-0.2975,-0.1851,12.84233333,77.66281500,0.00000000,1386.90000000,
5.324722,0.0806,-0.5572,-0.9685,0.1203,-0.2975,-0.1851,12.84233333,77.66281500,0.00000000,1386.90000000,
5.334572,0.0806,-0.5572,-0.9685,0.0806,-0.0367,-0.1619,12.84233333,77.66281500,0.00000000,1386.90000000,
5.343350,0.0806,-0.5572,-0.9685,0.0806,-0.0367,-0.1619,12.84233333,77.66281500,0.00000000,1386.90000000,
5.344778,0.1082,-0.2652,-1.2893,0.0806,-0.0367,-0.1619,12.84233333,77.66281500,0.00000000,1386.90000000,
5.355438,0.1082,-0.2652,-1.2893,0.0678,0.2999,-0.1271,12.84233333,77.66281500,0.00000000,1386.90000000,
5.362823,0.1082,-0.2652,-1.2893,0.0678,0.2999,-0.1271,12.84233333,77.66281500,0.00000000,1386.90000000,
5.363962,0.4287,-0.3633,-1.4449,0.0678,0.2999,-0.1271,12.84233333,77.66281500,0.00000000,1386.90000000,
5.375411,0.4287,-0.3633,-1.4449,0.1307,0.4215,-0.1857,12.84233333,77.66281500,0.00000000,1386.90000000,
5.383826,0.4287,-0.3633,-1.4449,0.1307,0.4215,-0.1857,12.84233333,77.66281500,0.00000000,1386.90000000,
5.385507,0.4739,-0.3690,-1.9874,0.1307,0.4215,-0.1857,12.84233333,77.66281500,0.00000000,1386.90000000,
5.395649,0.4739,-0.3690,-1.9874,0.1466,0.3012,-0.2566,12.84233333,77.66281500,0.00000000,1386.90000000,
5.403592,0.4739,-0.3690,-1.9874,0.1466,0.3012,-0.2566,12.84233333,77.66281500,0.00000000,1386.90000000,
5.405721,0.2188,-0.2719,-2.4235,0.1466,0.3012,-0.2566,12.84233333,77.66281500,0.00000000,1386.90000000,
5.415908,0.2188,-0.2719,-2.4235,0.0586,0.0916,-0.2309,12.84233333,77.66281500,0.00000000,1386.90000000,
5.424059,0.2188,-0.2719,-2.4235,0.0586,0.0916,-0.2309,12.84233333,77.66281500,0.00000000,1386.90000000,
5.425644,-0.2139,0.0673,-2.2676,0.0586,0.0916,-0.2309,12.84233333,77.66281500,0.00000000,1386.90000000,
5.435306,-0.2139,0.0673,-2.2676,-0.0403,-0.0519,-0.1710,12.84233333,77.66281500,0.00000000,1386.90000000,
5.442896,-0.2139,0.0673,-2.2676,-0.0403,-0.0519,-0.1710,12.84233333,77.66281500,0.00000000,1386.90000000,
5.444282,-0.2625,0.2554,-1.4506,-0.0403,-0.0519,-0.1710,12.84233333,77.66281500,0.00000000,1386.90000000,
5.455062,-0.2625,0.2554,-1.4506,-0.0489,-0.0489,-0.1289,12.84233333,77.66281500,0.00000000,1386.90000000,
5.466727,-0.2625,0.2554,-1.4506,-0.0489,-0.0489,-0.1289,12.84233333,77.66281500,0.00000000,1386.90000000,
5.469472,-0.0536,0.0761,-0.8614,-0.0489,-0.0489,-0.1289,12.84233333,77.66281500,0.00000000,1386.90000000,
5.474699,-0.0536,0.0761,-0.8614,-0.0098,0.0660,-0.0983,12.84233333,77.66281500,0.00000000,1386.90000000,
5.483333,-0.0536,0.0761,-0.8614,-0.0098,0.0660,-0.0983,12.84233333,77.66281500,0.00000000,1386.90000000,
5.485511,-0.1543,0.1838,-0.6197,-0.0098,0.0660,-0.0983,12.84233333,77.66281500,0.00000000,1386.90000000,
5.495770,-0.1543,0.1838,-0.6197,-0.0128,0.1643,-0.0220,12.84233333,77.66281500,0.00000000,1386.90000000,
5.503710,-0.1543,0.1838,-0.6197,-0.0128,0.1643,-0.0220,12.84233333,77.66281500,0.00000000,1386.90000000,
5.504785,-0.3833,0.4753,-0.0173,-0.0128,0.1643,-0.0220,12.84233333,77.66281500,0.00000000,1386.90000000,
5.514914,-0.3833,0.4753,-0.0173,0.0195,0.1478,0.0867,12.84233333,77.66281500,0.00000000,1386.90000000,
5.522694,-0.3833,0.4753,-0.0173,0.0195,0.1478,0.0867,12.84233333,77.66281500,0.00000000,1386.90000000,
5.524121,-0.5177,0.6961,0.7415,0.0195,0.1478,0.0867,12.84233333,77.66281500,0.00000000,1386.90000000,
5.534866,-0.5177,0.6961,0.7415,0.1582,0.1197,0.2071,12.84233333,77.66281500,0.00000000,1386.90000000,
5.543944,-0.5177,0.6961,0.7415,0.1582,0.1197,0.2071,12.84233333,77.66281500,0.00000000,1386.90000000,
5.545498,-0.2894,0.6639,1.2815,0.1582,0.1197,0.2071,12.84233333,77.66281500,0.00000000,1386.90000000,
5.555237,-0.2894,0.6639,1.2815,0.3470,0.1289,0.2486,12.84233333,77.66281500,0.00000000,1386.90000000,
5.562881,-0.2894,0.6639,1.2815,0.3470,0.1289,0.2486,12.84233333,77.66281500,0.00000000,1386.90000000,
5.564942,-0.1135,0.6533,1.2689,0.3470,0.1289,0.2486,12.84233333,77.66281500,0.00000000,1386.90000000,
5.574962,-0.1135,0.6533,1.2689,0.4985,0.1234,0.2682,12.84233333,77.66281500,0.00000000,1386.90000000,
5.584303,-0.1135,0.6533,1.2689,0.4985,0.1234,0.2682,12.84233333,77.66281500,0.00000000,1386.90000000,
5.586437,0.2765,0.4072,0.8345,0.4985,0.1234,0.2682,12.84233333,77.66281500,0.00000000,1386.90000000,
5.596095,0.2765,0.4072,0.8345,0.4722,-0.0281,0.2132,12.84233333,77.66281500,0.00000000,1386.90000000,
5.604273,0.2765,0.4072,0.8345,0.4722,-0.0281,0.2132,12.84233333,77.66281500,0.00000000,1386.90000000,
5.605646,0.5794,0.0595,0.5543,0.4722,-0.0281,0.2132,12.84233333,77.66281500,0.00000000,1386.90000000,
5.615602,0.5794,0.0595,0.5543,0.2621,-0.0825,0.1356,12.84233333,77.66281500,0.00000000,1386.90000000,
5.623626,0.5794,0.0595,0.5543,0.2621,-0.0825,0.1356,12.84233333,77.66281500,0.00000000,1386.90000000,
5.624846,0.5383,-0.1493,1.1592,0.2621,-0.0825,0.1356,12.84233333,77.66281500,0.00000000,1386.90000000,
5.635335,0.5383,-0.1493,1.1592,0.1466,0.0855,0.0971,12.84233333,77.66281500,0.00000000,1386.90000000,
5.642971,0.5383,-0.1493,1.1592,0.1466,0.0855,0.0971,12.84233333,77.66281500,0.00000000,1386.90000000,
5.644331,0.3389,-0.2588,1.5905,0.1466,0.0855,0.0971,12.84233333,77.66281500,0.00000000,1386.90000000,
5.654995,0.3389,-0.2588,1.5905,0.0953,0.1631,0.0153,12.84233333,77.66281500,0.00000000,1386.90000000,
5.665066,0.3389,-0.2588,1.5905,0.0953,0.1631,0.0153,12.84233333,77.66281500,0.00000000,1386.90000000,
5.666925,0.1608,-0.3082,1.4166,0.0953,0.1631,0.0153,12.84233333,77.66281500,0.00000000,1386.90000000,
5.676212,0.1608,-0.3082,1.4166,-0.0641,0.0281,-0.0574,12.84233333,77.66281500,0.00000000,1386.90000000,
5.683638,0.1608,-0.3082,1.4166,-0.0641,0.0281,-0.0574,12.84233333,77.66281500,0.00000000,1386.90000000,
5.685621,0.0181,-0.3028,1.3634,-0.0641,0.0281,-0.0574,12.84233333,77.66281500,0.00000000,1386.90000000,
5.695646,0.0181,-0.3028,1.3634,-0.2657,-0.0831,-0.0990,12.84233333,77.66281500,0.00000000,1386.90000000,
5.704847,0.0181,-0.3028,1.3634,-0.2657,-0.0831,-0.0990,12.84233333,77.66281500,0.00000000,1386.90000000,
5.706953,-0.1558,-0.5557,1.7619,-0.2657,-0.0831,-0.0990,12.84233333,77.66281500,0.00000000,1386.90000000,
5.718378,-0.1558,-0.5557,1.7619,-0.2517,-0.0617,-0.1362,12.84233333,77.66281500,0.00000000,1386.90000000,
5.723799,-0.1558,-0.5557,1.7619,-0.2517,-0.0617,-0.1362,12.84233333,77.66281500,0.00000000,1386.90000000,
5.725114,-0.4676,-1.0862,2.0250,-0.2517,-0.0617,-0.1362,12.84233333,77.66281500,0.00000000,1386.90000000,
5.735652,-0.4676,-1.0862,2.0250,-0.0977,-0.0244,-0.1564,12.84233333,77.66281500,0.00000000,1386.90000000,
5.742977,-0.4676,-1.0862,2.0250,-0.0977,-0.0244,-0.1564,12.84233333,77.66281500,0.00000000,1386.90000000,
5.745560,-0.9271,-1.4999,1.1656,-0.0977,-0.0244,-0.1564,12.84233333,77.66281500,0.00000000,1386.90000000,
5.755798,-0.9271,-1.4999,1.1656,-0.0458,0.2101,-0.0611,12.84233333,77.66281500,0.00000000,1386.90000000,
5.762537,-0.9271,-1.4999,1.1656,-0.0458,0.2101,-0.0611,12.84233333,77.66281500,0.00000000,1386.90000000,
5.763827,-1.3392,-1.1700,0.5496,-0.0458,0.2101,-0.0611,12.84233333,77.66281500,0.00000000,1386.90000000,
5.776073,-1.3392,-1.1700,0.5496,-0.1118,0.3262,0.1038,12.84233333,77.66281500,0.00000000,1386.90000000,
5.783635,-1.3392,-1.1700,0.5496,-0.1118,0.3262,0.1038,12.84233333,77.66281500,0.00000000,1386.90000000,
5.785616,-0.9662,-0.8017,0.3310,-0.1118,0.3262,0.1038,12.84233333,77.66281500,0.00000000,1386.90000000,
5.795127,-0.9662,-0.8017,0.3310,-0.1888,0.2279,0.1998,12.84233333,77.66281500,0.00000000,1386.90000000,
5.806112,-0.9662,-0.8017,0.3310,-0.1888,0.2279,0.1998,12.84233333,77.66281500,0.00000000,1386.90000000,
5.808350,-0.1684,-0.6174,0.6493,-0.1888,0.2279,0.1998,12.84233333,77.66281500,0.00000000,1386.90000000,
5.814600,-0.1684,-0.6174,0.6493,-0.1277,0.0812,0.1930,12.84233333,77.66281500,0.00000000,1386.90000000,
5.822978,-0.1684,-0.6174,0.6493,-0.1277,0.0812,0.1930,12.84233333,77.66281500,0.00000000,1386.90000000,
5.824647,0.4356,-0.8347,0.8877,-0.1277,0.0812,0.1930,12.84233333,77.66281500,0.00000000,1386.90000000,
5.834873,0.4356,-0.8347,0.8877,0.0116,-0.1161,0.0843,12.84233333,77.66281500,0.00000000,1386.90000000,
5.842659,0.4356,-0.8347,0.8877,0.0116,-0.1161,0.0843,12.84233333,77.66281500,0.00000000,1386.90000000,
5.844072,0.4339,-1.0912,0.4137,0.0116,-0.1161,0.0843,12.84233333,77.66281500,0.00000000,1386.90000000,
5.855721,0.4339,-1.0912,0.4137,0.0776,-0.2144,-0.0165,12.84233333,77.66281500,0.00000000,1386.90000000,
5.864922,0.4339,-1.0912,0.4137,0.0776,-0.2144,-0.0165,12.84233333,77.66281500,0.00000000,1386.90000000,
5.867009,-0.0600,-1.1660,-0.3947,0.0776,-0.2144,-0.0165,12.84233333,77.66281500,0.00000000,1386.90000000,
5.876006,-0.0600,-1.1660,-0.3947,-0.0079,-0.1613,0.0305,12.84233333,77.66281500,0.00000000,1386.90000000,
5.884551,-0.0600,-1.1660,-0.3947,-0.0079,-0.1613,0.0305,12.84233333,77.66281500,0.00000000,1386.90000000,
5.886383,-0.4044,-1.0443,-0.8144,-0.0079,-0.1613,0.0305,12.84233333,77.66281500,0.00000000,1386.90000000,
5.895969,-0.4044,-1.0443,-0.8144,-0.0599,0.0043,0.1655,12.84233333,77.66281500,0.00000000,1386.90000000,
5.903734,-0.4044,-1.0443,-0.8144,-0.0599,0.0043,0.1655,12.84233333,77.66281500,0.00000000,1386.90000000,
5.905750,-0.1737,-0.9225,-0.8823,-0.0599,0.0043,0.1655,12.84233333,77.66281500,0.00000000,1386.90000000,
5.915287,-0.1737,-0.9225,-0.8823,0.0165,0.0745,0.2095,12.84233333,77.66281500,0.00000000,1386.90000000,
5.922870,-0.1737,-0.9225,-0.8823,0.0165,0.0745,0.2095,12.84233333,77.66281500,0.00000000,1386.90000000,
5.924877,0.0412,-0.8207,-1.1720,0.0165,0.0745,0.2095,12.84233333,77.66281500,0.00000000,1386.90000000,
5.935052,0.0412,-0.8207,-1.1720,0.1038,0.0666,0.1802,12.84233333,77.66281500,0.00000000,1386.90000000,
5.943562,0.0412,-0.8207,-1.1720,0.1038,0.0666,0.1802,12.84233333,77.66281500,0.00000000,1386.90000000,
5.945977,0.0751,-0.6716,-1.7776,0.1038,0.0666,0.1802,12.84233333,77.66281500,0.00000000,1386.90000000,
5.954903,0.0751,-0.6716,-1.7776,0.0861,0.0654,0.1576,12.84233333,77.66281500,0.00000000,1386.90000000,
5.965237,0.0751,-0.6716,-1.7776,0.0861,0.0654,0.1576,12.84233333,77.66281500,0.00000000,1386.90000000,
5.967069,0.0904,-0.5122,-2.1756,0.0861,0.0654,0.1576,12.84233333,77.66281500,0.00000000,1386.90000000,
5.975980,0.0904,-0.5122,-2.1756,-0.0354,-0.0220,0.1246,12.84233333,77.66281500,0.00000000,1386.90000000,
5.983698,0.0904,-0.5122,-2.1756,-0.0354,-0.0220,0.1246,12.84233333,77.66281500,0.00000000,1386.90000000,
5.985471,-0.0508,-0.3221,-2.1606,-0.0354,-0.0220,0.1246,12.84233333,77.66281500,0.00000000,1386.90000000,
5.996052,-0.0508,-0.3221,-2.1606,-0.1405,-0.1222,0.1038,12.84233333,77.66281500,0.00000000,1386.90000000,
6.003406,-0.0508,-0.3221,-2.1606,-0.1405,-0.1222,0.1038,12.84233333,77.66281500,0.00000000,1386.90000000,
6.005171,0.0171,-0.2601,-1.5498,-0.1405,-0.1222,0.1038,12.84233333,77.66281500,0.00000000,1386.90000000,
6.018790,0.0171,-0.2601,-1.5498,-0.1252,-0.2272,0.0886,12.84233333,77.66281500,0.00000000,1386.90000000,
6.023045,0.0171,-0.2601,-1.5498,-0.1252,-0.2272,0.0886,12.84233333,77.66281500,0.00000000,1386.90000000,
6.024483,0.0585,-0.1936,-0.9773,-0.1252,-0.2272,0.0886,12.84233333,77.66281500,0.00000000,1386.90000000,
6.035650,0.0585,-0.1936,-0.9773,-0.0269,-0.1594,0.0648,12.84233333,77.66281500,0.00000000,1386.90000000,
6.043686,0.0585,-0.1936,-0.9773,-0.0269,-0.1594,0.0648,12.84233333,77.66281500,0.00000000,1386.90000000,
6.044988,0.0444,-0.0979,-0.7591,-0.0269,-0.1594,0.0648,12.84233333,77.66281500,0.00000000,1386.90000000,
6.055070,0.0444,-0.0979,-0.7591,0.0122,-0.1368,0.0391,12.84233333,77.66281500,0.00000000,1386.90000000,
6.065582,0.0444,-0.0979,-0.7591,0.0122,-0.1368,0.0391,12.84233333,77.66281500,0.00000000,1386.90000000,
6.067284,0.1267,-0.2154,-0.9389,0.0122,-0.1368,0.0391,12.84233333,77.66281500,0.00000000,1386.90000000,
6.075938,0.1267,-0.2154,-0.9389,-0.0519,-0.1112,-0.0140,12.84233333,77.66281500,0.00000000,1386.90000000,
6.083569,0.1267,-0.2154,-0.9389,-0.0519,-0.1112,-0.0140,12.84233333,77.66281500,0.00000000,1386.90000000,
6.085804,-0.0209,0.0364,-0.5346,-0.0519,-0.1112,-0.0140,12.84233333,77.66281500,0.00000000,1386.90000000,
6.095505,-0.0209,0.0364,-0.5346,-0.0348,-0.0171,-0.0244,12.84233333,77.66281500,0.00000000,1386.90000000,
6.102965,-0.0209,0.0364,-0.5346,-0.0348,-0.0171,-0.0244,12.84233333,77.66281500,0.00000000,1386.90000000,
6.104636,-0.2774,0.3289,0.0149,-0.0348,-0.0171,-0.0244,12.84233333,77.66281500,0.00000000,1386.90000000,
6.118826,-0.2774,0.3289,0.0149,0.0843,0.0867,-0.0312,12.84233333,77.66281500,0.00000000,1386.90000000,
6.123694,-0.2774,0.3289,0.0149,0.0843,0.0867,-0.0312,12.84233333,77.66281500,0.00000000,1386.90000000,
6.125249,-0.4593,0.3495,-0.0417,0.0843,0.0867,-0.0312,12.84233333,77.66281500,0.00000000,1386.90000000,
6.136162,-0.4593,0.3495,-0.0417,0.1631,0.1961,-0.0110,12.84233333,77.66281500,0.00000000,1386.90000000,
6.144012,-0.4593,0.3495,-0.0417,0.1631,0.1961,-0.0110,12.84233333,77.66281500,0.00000000,1386.90000000,
6.145850,-0.5691,0.4140,-0.5574,0.1631,0.1961,-0.0110,12.84233333,77.66281500,0.00000000,1386.90000000,
6.155664,-0.5691,0.4140,-0.5574,0.1472,0.2388,0.0464,12.84233333,77.66281500,0.00000000,1386.90000000,
6.164696,-0.5691,0.4140,-0.5574,0.1472,0.2388,0.0464,12.84233333,77.66281500,0.00000000,1386.90000000,
6.166468,-0.3262,0.6092,-0.5892,0.1472,0.2388,0.0464,12.84233333,77.66281500,0.00000000,1386.90000000,
6.175501,-0.3262,0.6092,-0.5892,0.0831,0.2089,0.0611,12.84233333,77.66281500,0.00000000,1386.90000000,
6.183717,-0.3262,0.6092,-0.5892,0.0831,0.2089,0.0611,12.84233333,77.66281500,0.00000000,1386.90000000,
6.185390,-0.1688,0.7746,-0.2003,0.0831,0.2089,0.0611,12.84233333,77.66281500,0.00000000,1386.90000000,
6.194328,-0.1688,0.7746,-0.2003,0.0147,0.0788,0.0324,12.84233333,77.66281500,0.00000000,1386.90000000,
6.204046,-0.1688,0.7746,-0.2003,0.0147,0.0788,0.0324,12.84233333,77.66281500,0.00000000,1386.90000000,
6.205803,0.0773,0.5365,0.2822,0.0147,0.0788,0.0324,12.84233333,77.66281500,0.00000000,1386.90000000,
6.218379,0.0773,0.5365,0.2822,-0.0776,-0.2541,-0.0605,12.84233333,77.66281500,0.00000000,1386.90000000,
6.223136,0.0773,0.5365,0.2822,-0.0776,-0.2541,-0.0605,12.84233333,77.66281500,0.00000000,1386.90000000,
6.224869,0.3048,0.1522,0.7493,-0.0776,-0.2541,-0.0605,12.84233333,77.66281500,0.00000000,1386.90000000,
6.235610,0.3048,0.1522,0.7493,-0.2492,-0.5919,-0.1497,12.84233333,77.66281500,0.00000000,1386.90000000,
6.242487,0.3048,0.1522,0.7493,-0.2492,-0.5919,-0.1497,12.84233333,77.66281500,0.00000000,1386.90000000,
6.243634,0.1816,-0.1180,1.6442,-0.2492,-0.5919,-0.1497,12.84233333,77.66281500,0.00000000,1386.90000000,
6.259064,0.1816,-0.1180,1.6442,-0.2957,-0.5272,-0.1167,12.84233333,77.66281500,0.00000000,1386.90000000,
6.266729,0.1816,-0.1180,1.6442,-0.2957,-0.5272,-0.1167,12.84233333,77.66281500,0.00000000,1004.20000000,
6.269077,-0.2038,-0.0082,2.7039,-0.2957,-0.5272,-0.1167,12.84351000,77.66330167,1.04951859,1004.20000000,
6.276098,-0.2038,-0.0082,2.7039,-0.0764,-0.2010,-0.0544,12.84351000,77.66330167,1.04951859,1004.20000000,
6.283509,-0.2038,-0.0082,2.7039,-0.0764,-0.2010,-0.0544,12.84351000,77.66330167,1.04951859,1004.20000000,
6.286801,0.0593,-0.3382,2.7647,-0.0764,-0.2010,-0.0544,12.84351000,77.66330167,1.04951859,1004.20000000,
6.294914,0.0593,-0.3382,2.7647,0.0776,-0.0379,-0.1289,12.84351000,77.66330167,1.04951859,1004.20000000,
6.303794,0.0593,-0.3382,2.7647,0.0776,-0.0379,-0.1289,12.84351000,77.66330167,1.04951859,1004.20000000,
6.305640,0.2587,-0.7597,1.5348,0.0776,-0.0379,-0.1289,12.84351000,77.66330167,1.04951859,1004.20000000,
6.317571,0.2587,-0.7597,1.5348,-0.1680,0.0067,-0.2327,12.84351000,77.66330167,1.04951859,1004.20000000,
6.323652,0.2587,-0.7597,1.5348,-0.1680,0.0067,-0.2327,12.84351000,77.66330167,1.04951859,1004.20000000,
6.325852,0.6577,-0.9806,0.8693,-0.1680,0.0067,-0.2327,12.84351000,77.66330167,1.04951859,1004.20000000,
6.336172,0.6577,-0.9806,0.8693,-0.5596,0.1491,-0.3378,12.84351000,77.66330167,1.04951859,1004.20000000,
6.343116,0.6577,-0.9806,0.8693,-0.5596,0.1491,-0.3378,12.84351000,77.66330167,1.04951859,1004.20000000,
6.344715,0.5182,-1.0635,1.7878,-0.5596,0.1491,-0.3378,12.84351000,77.66330167,1.04951859,1004.20000000,
6.355489,0.5182,-1.0635,1.7878,-0.4862,0.3060,-0.3848,12.84351000,77.66330167,1.04951859,1004.20000000,
6.364555,0.5182,-1.0635,1.7878,-0.4862,0.3060,-0.3848,12.84351000,77.66330167,1.04951859,1004.20000000,
6.368350,-0.4854,-0.8654,2.8022,-0.4862,0.3060,-0.3848,12.84351000,77.66330167,1.04951859,1004.20000000,
6.376141,-0.4854,-0.8654,2.8022,0.0531,0.2547,-0.2437,12.84351000,77.66330167,1.04951859,1004.20000000,
6.386577,-0.4854,-0.8654,2.8022,0.0531,0.2547,-0.2437,12.84351000,77.66330167,1.04951859,1004.20000000,
6.389636,-0.8916,-0.9675,2.2168,0.0531,0.2547,-0.2437,12.84351000,77.66330167,1.04951859,1004.20000000,
6.395369,-0.8916,-0.9675,2.2168,0.5541,0.0446,-0.0195,12.84351000,77.66330167,1.04951859,1004.20000000,
6.404074,-0.8916,-0.9675,2.2168,0.5541,0.0446,-0.0195,12.84351000,77.66330167,1.04951859,1004.20000000,
6.406724,-0.5016,-0.9661,0.3307,0.5541,0.0446,-0.0195,12.84351000,77.66330167,1.04951859,1004.20000000,
6.415350,-0.5016,-0.9661,0.3307,0.6634,-0.1649,0.0641,12.84351000,77.66330167,1.04951859,1004.20000000,
6.422933,-0.5016,-0.9661,0.3307,0.6634,-0.1649,0.0641,12.84351000,77.66330167,1.04951859,1004.20000000,
6.426026,0.0753,-0.4788,-0.7810,0.6634,-0.1649,0.0641,12.84351000,77.66330167,1.04951859,1004.20000000,
6.438559,0.0753,-0.4788,-0.7810,0.4698,-0.1998,-0.0360,12.84351000,77.66330167,1.04951859,1004.20000000,
6.444582,0.0753,-0.4788,-0.7810,0.4698,-0.1998,-0.0360,12.84351000,77.66330167,1.04951859,1004.20000000,
6.447691,0.3482,-0.5325,-1.4329,0.4698,-0.1998,-0.0360,12.84351000,77.66330167,1.04951859,1004.20000000,
6.455206,0.3482,-0.5325,-1.4329,0.0715,-0.0983,-0.2040,12.84351000,77.66330167,1.04951859,1004.20000000,
6.463927,0.3482,-0.5325,-1.4329,0.0715,-0.0983,-0.2040,12.84351000,77.66330167,1.04951859,1004.20000000,
6.465590,0.1160,-0.7979,-1.2699,0.0715,-0.0983,-0.2040,12.84351000,77.66330167,1.04951859,1004.20000000,
6.475620,0.1160,-0.7979,-1.2699,-0.2908,0.0538,-0.2401,12.84351000,77.66330167,1.04951859,1004.20000000,
6.485009,0.1160,-0.7979,-1.2699,-0.2908,0.0538,-0.2401,12.84351000,77.66330167,1.04951859,1004.20000000,
6.487778,-0.0020,-0.9289,-0.5300,-0.2908,0.0538,-0.2401,12.84351000,77.66330167,1.04951859,1004.20000000,
6.495403,-0.0020,-0.9289,-0.5300,-0.4215,0.0593,-0.2040,12.84351000,77.66330167,1.04951859,1004.20000000,
6.503630,-0.0020,-0.9289,-0.5300,-0.4215,0.0593,-0.2040,12.84351000,77.66330167,1.04951859,1004.20000000,
6.505652,0.1369,-0.8175,0.2930,-0.4215,0.0593,-0.2040,12.84351000,77.66330167,1.04951859,1004.20000000,
6.518865,0.1369,-0.8175,0.2930,-0.3164,0.0806,-0.1704,12.84351000,77.66330167,1.04951859,1004.20000000,
6.523289,0.1369,-0.8175,0.2930,-0.3164,0.0806,-0.1704,12.84351000,77.66330167,1.04951859,1004.20000000,
6.524707,0.2311,-0.5809,0.6037,-0.3164,0.0806,-0.1704,12.84351000,77.66330167,1.04951859,1004.20000000,
6.535968,0.2311,-0.5809,0.6037,-0.0660,0.1539,-0.1393,12.84351000,77.66330167,1.04951859,1004.20000000,
6.543239,0.2311,-0.5809,0.6037,-0.0660,0.1539,-0.1393,12.84351000,77.66330167,1.04951859,1004.20000000,
6.544486,0.1863,-0.4413,0.1568,-0.0660,0.1539,-0.1393,12.84351000,77.66330167,1.04951859,1004.20000000,
6.556054,0.1863,-0.4413,0.1568,0.2016,0.2083,-0.1185,12.84351000,77.66330167,1.04951859,1004.20000000,
6.563995,0.1863,-0.4413,0.1568,0.2016,0.2083,-0.1185,12.84351000,77.66330167,1.04951859,1004.20000000,
6.565746,-0.0603,-0.2097,-1.0680,0.2016,0.2083,-0.1185,12.84351000,77.66330167,1.04951859,1004.20000000,
6.575447,-0.0603,-0.2097,-1.0680,0.2969,0.1381,-0.1136,12.84351000,77.66330167,1.04951859,1004.20000000,
6.584315,-0.0603,-0.2097,-1.0680,0.2969,0.1381,-0.1136,12.84351000,77.66330167,1.04951859,1004.20000000,
6.586822,-0.3836,0.0151,-2.1635,0.2969,0.1381,-0.1136,12.84351000,77.66330167,1.04951859,1004.20000000,
6.595331,-0.3836,0.0151,-2.1635,0.2046,0.0611,-0.0586,12.84351000,77.66330167,1.04951859,1004.20000000,
6.603908,-0.3836,0.0151,-2.1635,0.2046,0.0611,-0.0586,12.84351000,77.66330167,1.04951859,1004.20000000,
6.605961,-0.3862,0.0770,-2.6860,0.2046,0.0611,-0.0586,12.84351000,77.66330167,1.04951859,1004.20000000,
6.615135,-0.3862,0.0770,-2.6860,-0.0525,-0.0220,0.0086,12.84351000,77.66330167,1.04951859,1004.20000000,
6.623932,-0.3862,0.0770,-2.6860,-0.0525,-0.0220,0.0086,12.84351000,77.66330167,1.04951859,1004.20000000,
6.625507,-0.3213,0.2354,-2.3412,-0.0525,-0.0220,0.0086,12.84351000,77.66330167,1.04951859,1004.20000000,
6.635941,-0.3213,0.2354,-2.3412,-0.1998,0.0122,0.0709,12.84351000,77.66330167,1.04951859,1004.20000000,
6.644580,-0.3213,0.2354,-2.3412,-0.1998,0.0122,0.0709,12.84351000,77.66330167,1.04951859,1004.20000000,
6.646049,0.0707,0.1964,-1.3869,-0.1998,0.0122,0.0709,12.84351000,77.66330167,1.04951859,1004.20000000,
6.655535,0.0707,0.1964,-1.3869,-0.1643,0.0538,0.0764,12.84351000,77.66330167,1.04951859,1004.20000000,
6.664856,0.0707,0.1964,-1.3869,-0.1643,0.0538,0.0764,12.84351000,77.66330167,1.04951859,1004.20000000,
6.666440,0.5113,0.2177,-0.8208,-0.1643,0.0538,0.0764,12.84351000,77.66330167,1.04951859,1004.20000000,
6.674743,0.5113,0.2177,-0.8208,-0.0476,0.0538,0.0067,12.84351000,77.66330167,1.04951859,1004.20000000,
6.683912,0.5113,0.2177,-0.8208,-0.0476,0.0538,0.0067,12.84351000,77.66330167,1.04951859,1004.20000000,
6.685954,0.3777,0.3225,-0.8558,-0.0476,0.0538,0.0067,12.84351000,77.66330167,1.04951859,1004.20000000,
6.695352,0.3777,0.3225,-0.8558,-0.0153,-0.0061,-0.0263,12.84351000,77.66330167,1.04951859,1004.20000000,
6.703402,0.3777,0.3225,-0.8558,-0.0153,-0.0061,-0.0263,12.84351000,77.66330167,1.04951859,1004.20000000,
6.705070,-0.1324,0.4023,-1.0216,-0.0153,-0.0061,-0.0263,12.84351000,77.66330167,1.04951859,1004.20000000,
6.719876,-0.1324,0.4023,-1.0216,-0.0568,-0.0568,0.0409,12.84351000,77.66330167,1.04951859,1004.20000000,
6.722917,-0.1324,0.4023,-1.0216,-0.0568,-0.0568,0.0409,12.84351000,77.66330167,1.04951859,1004.20000000,
6.724401,-0.2573,0.3829,-0.7656,-0.0568,-0.0568,0.0409,12.84351000,77.66330167,1.04951859,1004.20000000,
6.736393,-0.2573,0.3829,-0.7656,-0.0812,-0.1252,0.1264,12.84351000,77.66330167,1.04951859,1004.20000000,
6.743988,-0.2573,0.3829,-0.7656,-0.0812,-0.1252,0.1264,12.84351000,77.66330167,1.04951859,1004.20000000,
6.745244,-0.1134,0.5376,-0.1441,-0.0812,-0.1252,0.1264,12.84351000,77.66330167,1.04951859,1004.20000000,
6.755340,-0.1134,0.5376,-0.1441,-0.0446,0.0287,0.1839,12.84351000,77.66330167,1.04951859,1004.20000000,
6.764035,-0.1134,0.5376,-0.1441,-0.0446,0.0287,0.1839,12.84351000,77.66330167,1.04951859,1004.20000000,
6.766069,-0.0312,0.8212,0.5667,-0.0446,0.0287,0.1839,12.84351000,77.66330167,1.04951859,1004.20000000,
6.774988,-0.0312,0.8212,0.5667,0.1014,0.2059,0.2162,12.84351000,77.66330167,1.04951859,1004.20000000,
6.784584,-0.0312,0.8212,0.5667,0.1014,0.2059,0.2162,12.84351000,77.66330167,1.04951859,1004.20000000,
6.787531,0.2189,1.0113,0.7354,0.1014,0.2059,0.2162,12.84351000,77.66330167,1.04951859,1004.20000000,
6.795220,0.2189,1.0113,0.7354,0.2987,0.2615,0.1765,12.84351000,77.66330167,1.04951859,1004.20000000,
6.803916,0.2189,1.0113,0.7354,0.2987,0.2615,0.1765,12.84351000,77.66330167,1.04951859,1004.20000000,
6.805503,0.3213,1.0167,0.3167,0.2987,0.2615,0.1765,12.84351000,77.66330167,1.04951859,1004.20000000,
6.815660,0.3213,1.0167,0.3167,0.3910,0.0971,0.1130,12.84351000,77.66330167,1.04951859,1004.20000000,
6.823635,0.3213,1.0167,0.3167,0.3910,0.0971,0.1130,12.84351000,77.66330167,1.04951859,1004.20000000,
6.825205,0.4267,0.7564,-0.0633,0.3910,0.0971,0.1130,12.84351000,77.66330167,1.04951859,1004.20000000,
6.835432,0.4267,0.7564,-0.0633,0.2865,-0.1533,0.0275,12.84351000,77.66330167,1.04951859,1004.20000000,
6.844791,0.4267,0.7564,-0.0633,0.2865,-0.1533,0.0275,12.84351000,77.66330167,1.04951859,1004.20000000,
6.846252,0.6158,0.2390,0.0358,0.2865,-0.1533,0.0275,12.84351000,77.66330167,1.04951859,1004.20000000,
6.855712,0.6158,0.2390,0.0358,0.0360,-0.2853,-0.0648,12.84351000,77.66330167,1.04951859,1004.20000000,
6.864418,0.6158,0.2390,0.0358,0.0360,-0.2853,-0.0648,12.84351000,77.66330167,1.04951859,1004.20000000,
6.865972,0.3142,-0.1363,1.0242,0.0360,-0.2853,-0.0648,12.84351000,77.66330167,1.04951859,1004.20000000,
6.875522,0.3142,-0.1363,1.0242,-0.0702,-0.1399,-0.0611,12.84351000,77.66330167,1.04951859,1004.20000000,
6.884052,0.3142,-0.1363,1.0242,-0.0702,-0.1399,-0.0611,12.84351000,77.66330167,1.04951859,1004.20000000,
6.885822,-0.1289,-0.2660,2.1308,-0.0702,-0.1399,-0.0611,12.84351000,77.66330167,1.04951859,1004.20000000,
6.895389,-0.1289,-0.2660,2.1308,0.0128,0.0922,-0.0397,12.84351000,77.66330167,1.04951859,1004.20000000,
6.903535,-0.1289,-0.2660,2.1308,0.0128,0.0922,-0.0397,12.84351000,77.66330167,1.04951859,1004.20000000,
6.905322,-0.3417,-0.4812,1.9094,0.0128,0.0922,-0.0397,12.84351000,77.66330167,1.04951859,1004.20000000,
6.914452,-0.3417,-0.4812,1.9094,-0.0739,0.1423,-0.0293,12.84351000,77.66330167,1.04951859,1004.20000000,
6.924666,-0.3417,-0.4812,1.9094,-0.0739,0.1423,-0.0293,12.84351000,77.66330167,1.04951859,1004.20000000,
6.926339,0.1943,-0.6441,1.2202,-0.0739,0.1423,-0.0293,12.84351000,77.66330167,1.04951859,1004.20000000,
6.936529,0.1943,-0.6441,1.2202,-0.4001,-0.0153,-0.0825,12.84351000,77.66330167,1.04951859,1004.20000000,
6.943866,0.1943,-0.6441,1.2202,-0.4001,-0.0153,-0.0825,12.84351000,77.66330167,1.04951859,1004.20000000,
6.945147,0.4201,-0.6317,1.5806,-0.4001,-0.0153,-0.0825,12.84351000,77.66330167,1.04951859,1004.20000000,
6.956026,0.4201,-0.6317,1.5806,-0.5681,-0.1845,-0.1955,12.84351000,77.66330167,1.04951859,1004.20000000,
6.964246,0.4201,-0.6317,1.5806,-0.5681,-0.1845,-0.1955,12.84351000,77.66330167,1.04951859,1004.20000000,
6.966249,0.4242,-1.0815,2.9388,-0.5681,-0.1845,-0.1955,12.84351000,77.66330167,1.04951859,1004.20000000,
6.975402,0.4242,-1.0815,2.9388,-0.3476,-0.2181,-0.3024,12.84351000,77.66330167,1.04951859,1004.20000000,
6.983010,0.4242,-1.0815,2.9388,-0.3476,-0.2181,-0.3024,12.84351000,77.66330167,1.04951859,1004.20000000,
6.985000,-0.5199,-1.3669,3.3851,-0.3476,-0.2181,-0.3024,12.84351000,77.66330167,1.04951859,1004.20000000,
6.995522,-0.5199,-1.3669,3.3851,0.1368,-0.0183,-0.2205,12.84351000,77.66330167,1.04951859,1004.20000000,
7.003746,-0.5199,-1.3669,3.3851,0.1368,-0.0183,-0.2205,12.84351000,77.66330167,1.04951859,1004.20000000,
7.005634,-1.2664,-1.6045,2.1933,0.1368,-0.0183,-0.2205,12.84351000,77.66330167,1.04951859,1004.20000000,
7.014941,-1.2664,-1.6045,2.1933,0.4178,0.2578,0.0073,12.84351000,77.66330167,1.04951859,1004.20000000,
7.024097,-1.2664,-1.6045,2.1933,0.4178,0.2578,0.0073,12.84351000,77.66330167,1.04951859,1004.20000000,
7.025607,-1.3873,-1.4260,0.2829,0.4178,0.2578,0.0073,12.84351000,77.66330167,1.04951859,1004.20000000,
7.036509,-1.3873,-1.4260,0.2829,0.2779,0.2999,0.1961,12.84351000,77.66330167,1.04951859,1004.20000000,
7.044446,-1.3873,-1.4260,0.2829,0.2779,0.2999,0.1961,12.84351000,77.66330167,1.04951859,1004.20000000,
7.045806,-0.8539,-0.7348,-0.6079,0.2779,0.2999,0.1961,12.84351000,77.66330167,1.04951859,1004.20000000,
7.055504,-0.8539,-0.7348,-0.6079,-0.0531,0.2162,0.2150,12.84351000,77.66330167,1.04951859,1004.20000000,
7.063879,-0.8539,-0.7348,-0.6079,-0.0531,0.2162,0.2150,12.84351000,77.66330167,1.04951859,1004.20000000,
7.065711,-0.0041,-0.5095,-0.4303,-0.0531,0.2162,0.2150,12.84351000,77.66330167,1.04951859,1004.20000000,
7.075264,-0.0041,-0.5095,-0.4303,-0.2969,0.1264,0.1173,12.84351000,77.66330167,1.04951859,1004.20000000,
7.084017,-0.0041,-0.5095,-0.4303,-0.2969,0.1264,0.1173,12.84351000,77.66330167,1.04951859,1004.20000000,
7.086451,0.3905,-0.9250,0.3848,-0.2969,0.1264,0.1173,12.84351000,77.66330167,1.04951859,1004.20000000,
7.095016,0.3905,-0.9250,0.3848,-0.2877,0.0495,0.0519,12.84351000,77.66330167,1.04951859,1004.20000000,
7.104062,0.3905,-0.9250,0.3848,-0.2877,0.0495,0.0519,12.84351000,77.66330167,1.04951859,1004.20000000,
7.105647,0.1614,-1.1606,0.9056,-0.2877,0.0495,0.0519,12.84351000,77.66330167,1.04951859,1004.20000000,
7.115708,0.1614,-1.1606,0.9056,-0.0977,-0.0721,0.0666,12.84351000,77.66330167,1.04951859,1004.20000000,
7.124444,0.1614,-1.1606,0.9056,-0.0977,-0.0721,0.0666,12.84351000,77.66330167,1.04951859,1004.20000000,
7.126048,-0.1941,-1.1571,0.6979,-0.0977,-0.0721,0.0666,12.84351000,77.66330167,1.04951859,1004.20000000,
7.136053,-0.1941,-1.1571,0.6979,0.0861,-0.1063,0.1637,12.84351000,77.66330167,1.04951859,1004.20000000,
7.143699,-0.1941,-1.1571,0.6979,0.0861,-0.1063,0.1637,12.84351000,77.66330167,1.04951859,1004.20000000,
7.145147,-0.2523,-0.9468,-0.0158,0.0861,-0.1063,0.1637,12.84351000,77.66330167,1.04951859,1004.20000000,
7.155558,-0.2523,-0.9468,-0.0158,0.1765,-0.0464,0.2786,12.84351000,77.66330167,1.04951859,1004.20000000,
7.163946,-0.2523,-0.9468,-0.0158,0.1765,-0.0464,0.2786,12.84351000,77.66330167,1.04951859,1004.20000000,
7.165882,0.1177,-0.5735,-0.7358,0.1765,-0.0464,0.2786,12.84351000,77.66330167,1.04951859,1004.20000000,
7.174925,0.1177,-0.5735,-0.7358,0.2004,0.0299,0.2804,12.84351000,77.66330167,1.04951859,1004.20000000,
7.184234,0.1177,-0.5735,-0.7358,0.2004,0.0299,0.2804,12.84351000,77.66330167,1.04951859,1004.20000000,
7.186023,0.4065,-0.3639,-1.2368,0.2004,0.0299,0.2804,12.84351000,77.66330167,1.04951859,1004.20000000,
7.195402,0.4065,-0.3639,-1.2368,0.1680,0.0483,0.1814,12.84351000,77.66330167,1.04951859,1004.20000000,
7.202565,0.4065,-0.3639,-1.2368,0.1680,0.0483,0.1814,12.84351000,77.66330167,1.04951859,1004.20000000,
7.204347,0.6565,-0.5626,-1.7042,0.1680,0.0483,0.1814,12.84351000,77.66330167,1.04951859,1004.20000000,
7.215306,0.6565,-0.5626,-1.7042,0.0593,0.0941,0.0654,12.84351000,77.66330167,1.04951859,1004.20000000,
7.223541,0.6565,-0.5626,-1.7042,0.0593,0.0941,0.0654,12.84351000,77.66330167,1.04951859,1004.20000000,
7.225071,0.3582,-0.5028,-1.9881,0.0593,0.0941,0.0654,12.84351000,77.66330167,1.04951859,1004.20000000,
7.235798,0.3582,-0.5028,-1.9881,-0.0623,0.1014,0.0495,12.84351000,77.66330167,1.04951859,1004.20000000,
7.242685,0.3582,-0.5028,-1.9881,-0.0623,0.1014,0.0495,12.84351000,77.66330167,1.04951859,1004.20000000,
7.245513,0.2630,-0.2495,-1.6975,-0.0623,0.1014,0.0495,12.84351000,77.66330167,1.04951859,1004.20000000,
7.254748,0.2630,-0.2495,-1.6975,-0.1277,0.0904,0.0452,12.84351000,77.66330167,1.04951859,1004.20000000,
7.264210,0.2630,-0.2495,-1.6975,-0.1277,0.0904,0.0452,12.84351000,77.66330167,1.04951859,1004.20000000,
7.266158,0.1443,-0.0771,-1.2805,-0.1277,0.0904,0.0452,12.84351000,77.66330167,1.04951859,1004.20000000,
7.275326,0.1443,-0.0771,-1.2805,-0.1057,0.0709,0.0415,12.84351000,77.66330167,1.04951859,957.70000000,
7.283013,0.1443,-0.0771,-1.2805,-0.1057,0.0709,0.0415,12.84349833,77.66314000,1.21834755,957.70000000,
7.284981,0.1850,-0.0381,-0.8722,-0.1057,0.0709,0.0415,12.84349833,77.66314000,1.21834755,957.70000000,
7.296870,0.1850,-0.0381,-0.8722,-0.0073,0.0183,0.0214,12.84349833,77.66314000,1.21834755,957.70000000,
7.302935,0.1850,-0.0381,-0.8722,-0.0073,0.0183,0.0214,12.84349833,77.66314000,1.21834755,957.70000000,
7.303670,0.2068,-0.0106,-0.6856,-0.0073,0.0183,0.0214,12.84349833,77.66314000,1.21834755,957.70000000,
7.315565,0.2068,-0.0106,-0.6856,0.1063,-0.1069,-0.0031,12.84349833,77.66314000,1.21834755,957.70000000,
7.323418,0.2068,-0.0106,-0.6856,0.1063,-0.1069,-0.0031,12.84349833,77.66314000,1.21834755,957.70000000,
7.324839,0.0403,0.0432,-0.7901,0.1063,-0.1069,-0.0031,12.84349833,77.66314000,1.21834755,957.70000000,
7.335534,0.0403,0.0432,-0.7901,0.1216,-0.1222,-0.0134,12.84349833,77.66314000,1.21834755,957.70000000,
7.343414,0.0403,0.0432,-0.7901,0.1216,-0.1222,-0.0134,12.84349833,77.66314000,1.21834755,957.70000000,
7.345041,-0.1143,0.1634,-0.8486,0.1216,-0.1222,-0.0134,12.84349833,77.66314000,1.21834755,957.70000000,
7.355456,-0.1143,0.1634,-0.8486,0.0971,-0.0293,0.0134,12.84349833,77.66314000,1.21834755,957.70000000,
7.363908,-0.1143,0.1634,-0.8486,0.0971,-0.0293,0.0134,12.84349833,77.66314000,1.21834755,957.70000000,
7.365515,-0.0916,0.1318,-0.7608,0.0971,-0.0293,0.0134,12.84349833,77.66314000,1.21834755,957.70000000,
7.375513,-0.0916,0.1318,-0.7608,0.0825,0.0275,0.0122,12.84349833,77.66314000,1.21834755,957.70000000,
7.383769,-0.0916,0.1318,-0.7608,0.0825,0.0275,0.0122,12.84349833,77.66314000,1.21834755,957.70000000,
7.385993,0.0806,0.0854,-0.3186,0.0825,0.0275,0.0122,12.84349833,77.66314000,1.21834755,957.70000000,
7.394957,0.0806,0.0854,-0.3186,0.1112,-0.0195,-0.0031,12.84349833,77.66314000,1.21834755,957.70000000,
7.404004,0.0806,0.0854,-0.3186,0.1112,-0.0195,-0.0031,12.84349833,77.66314000,1.21834755,957.70000000,
7.406064,0.1288,0.1764,0.1199,0.1112,-0.0195,-0.0031,12.84349833,77.66314000,1.21834755,957.70000000,
7.417694,0.1288,0.1764,0.1199,0.1875,-0.0238,-0.0037,12.84349833,77.66314000,1.21834755,957.70000000,
7.423712,0.1288,0.1764,0.1199,0.1875,-0.0238,-0.0037,12.84349833,77.66314000,1.21834755,957.70000000,
7.424895,0.1038,0.1885,0.3197,0.1875,-0.0238,-0.0037,12.84349833,77.66314000,1.21834755,957.70000000,
7.435989,0.1038,0.1885,0.3197,0.2303,-0.1668,-0.0269,12.84349833,77.66314000,1.21834755,957.70000000,
7.442940,0.1038,0.1885,0.3197,0.2303,-0.1668,-0.0269,12.84349833,77.66314000,1.21834755,957.70000000,
7.444292,0.1202,-0.0351,0.1079,0.2303,-0.1668,-0.0269,12.84349833,77.66314000,1.21834755,957.70000000,
7.454979,0.1202,-0.0351,0.1079,0.1087,-0.3360,-0.0257,12.84349833,77.66314000,1.21834755,957.70000000,
7.463944,0.1202,-0.0351,0.1079,0.1087,-0.3360,-0.0257,12.84349833,77.66314000,1.21834755,957.70000000,
7.465631,0.0667,-0.3638,0.2390,0.1087,-0.3360,-0.0257,12.84349833,77.66314000,1.21834755,957.70000000,
7.475509,0.0667,-0.3638,0.2390,-0.0935,-0.4753,0.0434,12.84349833,77.66314000,1.21834755,957.70000000,
7.483394,0.0667,-0.3638,0.2390,-0.0935,-0.4753,0.0434,12.84349833,77.66314000,1.21834755,957.70000000,
7.485531,0.2062,-0.4797,1.1766,-0.0935,-0.4753,0.0434,12.84349833,77.66314000,1.21834755,957.70000000,
7.494911,0.2062,-0.4797,1.1766,-0.1246,-0.4178,0.0971,12.84349833,77.66314000,1.21834755,957.70000000,
7.503915,0.2062,-0.4797,1.1766,-0.1246,-0.4178,0.0971,12.84349833,77.66314000,1.21834755,957.70000000,
7.507207,0.2656,-0.2607,2.1286,-0.1246,-0.4178,0.0971,12.84349833,77.66314000,1.21834755,957.70000000,
7.515861,0.2656,-0.2607,2.1286,0.1051,-0.1655,0.0764,12.84349833,77.66314000,1.21834755,957.70000000,
7.523313,0.2656,-0.2607,2.1286,0.1051,-0.1655,0.0764,12.84349833,77.66314000,1.21834755,957.70000000,
7.524497,0.4221,-0.3242,1.8931,0.1051,-0.1655,0.0764,12.84349833,77.66314000,1.21834755,957.70000000,
7.535390,0.4221,-0.3242,1.8931,0.2529,-0.1399,-0.0623,12.84349833,77.66314000,1.21834755,957.70000000,
7.542515,0.4221,-0.3242,1.8931,0.2529,-0.1399,-0.0623,12.84349833,77.66314000,1.21834755,957.70000000,
7.543675,0.3066,-0.8054,0.2441,0.2529,-0.1399,-0.0623,12.84349833,77.66314000,1.21834755,957.70000000,
7.555721,0.3066,-0.8054,0.2441,-0.0415,-0.4221,-0.2107,12.84349833,77.66314000,1.21834755,957.70000000,
7.564019,0.3066,-0.8054,0.2441,-0.0415,-0.4221,-0.2107,12.84349833,77.66314000,1.21834755,957.70000000,
7.566958,0.2794,-0.9975,-0.4047,-0.0415,-0.4221,-0.2107,12.84349833,77.66314000,1.21834755,957.70000000,
7.575509,0.2794,-0.9975,-0.4047,-0.5785,-0.6445,-0.2334,12.84349833,77.66314000,1.21834755,957.70000000,
7.585065,0.2794,-0.9975,-0.4047,-0.5785,-0.6445,-0.2334,12.84349833,77.66314000,1.21834755,957.70000000,
7.586982,0.2042,-0.7970,0.9834,-0.5785,-0.6445,-0.2334,12.84349833,77.66314000,1.21834755,957.70000000,
7.600535,0.2042,-0.7970,0.9834,-0.8326,-0.4252,-0.1197,12.84349833,77.66314000,1.21834755,957.70000000,
7.603717,0.2042,-0.7970,0.9834,-0.8326,-0.4252,-0.1197,12.84349833,77.66314000,1.21834755,957.70000000,
7.605146,0.1946,-0.8195,2.9324,-0.8326,-0.4252,-0.1197,12.84349833,77.66314000,1.21834755,957.70000000,
7.615477,0.1946,-0.8195,2.9324,-0.4178,-0.0648,-0.0238,12.84349833,77.66314000,1.21834755,957.70000000,
7.623618,0.1946,-0.8195,2.9324,-0.4178,-0.0648,-0.0238,12.84349833,77.66314000,1.21834755,957.70000000,
7.625379,0.2046,-0.8516,3.6851,-0.4178,-0.0648,-0.0238,12.84349833,77.66314000,1.21834755,957.70000000,
7.635297,0.2046,-0.8516,3.6851,0.3213,0.1558,0.0165,12.84349833,77.66314000,1.21834755,957.70000000,
7.642793,0.2046,-0.8516,3.6851,0.3213,0.1558,0.0165,12.84349833,77.66314000,1.21834755,957.70000000,
7.644341,0.0543,-0.7841,1.9061,0.3213,0.1558,0.0165,12.84349833,77.66314000,1.21834755,957.70000000,
7.654942,0.0543,-0.7841,1.9061,0.6500,0.1350,0.0263,12.84349833,77.66314000,1.21834755,957.70000000,
7.663790,0.0543,-0.7841,1.9061,0.6500,0.1350,0.0263,12.84349833,77.66314000,1.21834755,957.70000000,
7.665857,-0.0406,-0.3509,-0.3928,0.6500,0.1350,0.0263,12.84349833,77.66314000,1.21834755,957.70000000,
7.675773,-0.0406,-0.3509,-0.3928,0.4746,0.0721,0.0476,12.84349833,77.66314000,1.21834755,957.70000000,
7.684581,-0.0406,-0.3509,-0.3928,0.4746,0.0721,0.0476,12.84349833,77.66314000,1.21834755,957.70000000,
7.687036,0.4290,-0.1233,-1.5165,0.4746,0.0721,0.0476,12.84349833,77.66314000,1.21834755,957.70000000,
7.695854,0.4290,-0.1233,-1.5165,0.0648,0.0544,-0.0116,12.84349833,77.66314000,1.21834755,957.70000000,
7.703501,0.4290,-0.1233,-1.5165,0.0648,0.0544,-0.0116,12.84349833,77.66314000,1.21834755,957.70000000,
7.705254,1.0396,-0.2765,-1.0946,0.0648,0.0544,-0.0116,12.84349833,77.66314000,1.21834755,957.70000000,
7.715882,1.0396,-0.2765,-1.0946,-0.2523,0.0941,-0.1460,12.84349833,77.66314000,1.21834755,957.70000000,
7.723303,1.0396,-0.2765,-1.0946,-0.2523,0.0941,-0.1460,12.84349833,77.66314000,1.21834755,957.70000000,
7.724483,1.2782,-0.5164,-0.1089,-0.2523,0.0941,-0.1460,12.84349833,77.66314000,1.21834755,957.70000000,
7.734961,1.2782,-0.5164,-0.1089,-0.2841,0.1161,-0.2834,12.84349833,77.66314000,1.21834755,957.70000000,
7.742609,1.2782,-0.5164,-0.1089,-0.2841,0.1161,-0.2834,12.84349833,77.66314000,1.21834755,957.70000000,
7.744159,1.0317,-0.6209,0.3970,-0.2841,0.1161,-0.2834,12.84349833,77.66314000,1.21834755,957.70000000,
7.755610,1.0317,-0.6209,0.3970,-0.1374,0.0733,-0.3726,12.84349833,77.66314000,1.21834755,957.70000000,
7.764109,1.0317,-0.6209,0.3970,-0.1374,0.0733,-0.3726,12.84349833,77.66314000,1.21834755,957.70000000,
7.765959,0.4683,-0.5881,0.2220,-0.1374,0.0733,-0.3726,12.84349833,77.66314000,1.21834755,957.70000000,
7.775876,0.4683,-0.5881,0.2220,0.0837,0.0220,-0.3464,12.84349833,77.66314000,1.21834755,957.70000000,
7.783000,0.4683,-0.5881,0.2220,0.0837,0.0220,-0.3464,12.84349833,77.66314000,1.21834755,957.70000000,
7.784968,-0.0423,-0.4906,-0.5257,0.0837,0.0220,-0.3464,12.84349833,77.66314000,1.21834755,957.70000000,
7.800864,-0.0423,-0.4906,-0.5257,0.2388,-0.0092,-0.2388,12.84349833,77.66314000,1.21834755,957.70000000,
7.803749,-0.0423,-0.4906,-0.5257,0.2388,-0.0092,-0.2388,12.84349833,77.66314000,1.21834755,957.70000000,
7.805236,-0.1549,-0.4034,-1.5871,0.2388,-0.0092,-0.2388,12.84349833,77.66314000,1.21834755,957.70000000,
7.815869,-0.1549,-0.4034,-1.5871,0.2175,0.0269,-0.1802,12.84349833,77.66314000,1.21834755,957.70000000,
7.823969,-0.1549,-0.4034,-1.5871,0.2175,0.0269,-0.1802,12.84349833,77.66314000,1.21834755,957.70000000,
7.825670,-0.1734,-0.1074,-2.5645,0.2175,0.0269,-0.1802,12.84349833,77.66314000,1.21834755,957.70000000,
7.836113,-0.1734,-0.1074,-2.5645,0.0550,0.1674,-0.1613,12.84349833,77.66314000,1.21834755,957.70000000,
7.843428,-0.1734,-0.1074,-2.5645,0.0550,0.1674,-0.1613,12.84349833,77.66314000,1.21834755,957.70000000,
7.844845,-0.2327,0.2221,-2.8685,0.0550,0.1674,-0.1613,12.84349833,77.66314000,1.21834755,957.70000000,
7.855156,-0.2327,0.2221,-2.8685,-0.1332,0.2285,-0.1289,12.84349833,77.66314000,1.21834755,957.70000000,
7.863610,-0.2327,0.2221,-2.8685,-0.1332,0.2285,-0.1289,12.84349833,77.66314000,1.21834755,957.70000000,
7.865328,-0.1022,0.2981,-2.7348,-0.1332,0.2285,-0.1289,12.84349833,77.66314000,1.21834755,957.70000000,
7.874763,-0.1022,0.2981,-2.7348,-0.2993,0.2541,-0.0837,12.84349833,77.66314000,1.21834755,957.70000000,
7.883534,-0.1022,0.2981,-2.7348,-0.2993,0.2541,-0.0837,12.84349833,77.66314000,1.21834755,957.70000000,
7.885848,0.1247,0.2528,-2.2292,-0.2993,0.2541,-0.0837,12.84349833,77.66314000,1.21834755,957.70000000,
7.895389,0.1247,0.2528,-2.2292,-0.3653,0.2138,-0.0495,12.84349833,77.66314000,1.21834755,957.70000000,
7.903549,0.1247,0.2528,-2.2292,-0.3653,0.2138,-0.0495,12.84349833,77.66314000,1.21834755,957.70000000,
7.905181,0.2660,0.3184,-1.4743,-0.3653,0.2138,-0.0495,12.84349833,77.66314000,1.21834755,957.70000000,
7.915415,0.2660,0.3184,-1.4743,-0.3415,0.1038,-0.0257,12.84349833,77.66314000,1.21834755,957.70000000,
7.922626,0.2660,0.3184,-1.4743,-0.3415,0.1038,-0.0257,12.84349833,77.66314000,1.21834755,957.70000000,
7.924274,0.1983,0.4584,-0.6154,-0.3415,0.1038,-0.0257,12.84349833,77.66314000,1.21834755,957.70000000,
7.935729,0.1983,0.4584,-0.6154,-0.2114,-0.0043,-0.0006,12.84349833,77.66314000,1.21834755,957.70000000,
7.943018,0.1983,0.4584,-0.6154,-0.2114,-0.0043,-0.0006,12.84349833,77.66314000,1.21834755,957.70000000,
7.944849,0.2215,0.4057,-0.1923,-0.2114,-0.0043,-0.0006,12.84349833,77.66314000,1.21834755,957.70000000,
7.955330,0.2215,0.4057,-0.1923,-0.0819,0.0037,0.0067,12.84349833,77.66314000,1.21834755,957.70000000,
7.963799,0.2215,0.4057,-0.1923,-0.0819,0.0037,0.0067,12.84349833,77.66314000,1.21834755,957.70000000,
7.966089,-0.0252,0.4813,-0.1829,-0.0819,0.0037,0.0067,12.84349833,77.66314000,1.21834755,957.70000000,
7.975466,-0.0252,0.4813,-0.1829,-0.0495,0.1014,0.0782,12.84349833,77.66314000,1.21834755,957.70000000,
7.984510,-0.0252,0.4813,-0.1829,-0.0495,0.1014,0.0782,12.84349833,77.66314000,1.21834755,957.70000000,
7.986705,-0.4060,0.7463,-0.2575,-0.0495,0.1014,0.0782,12.84349833,77.66314000,1.21834755,957.70000000,
7.997246,-0.4060,0.7463,-0.2575,-0.0562,0.2517,0.2120,12.84349833,77.66314000,1.21834755,957.70000000,
8.003687,-0.4060,0.7463,-0.2575,-0.0562,0.2517,0.2120,12.84349833,77.66314000,1.21834755,957.70000000,
8.005133,-0.3212,0.9046,0.1482,-0.0562,0.2517,0.2120,12.84349833,77.66314000,1.21834755,957.70000000,
8.017509,-0.3212,0.9046,0.1482,0.0189,0.3250,0.2834,12.84349833,77.66314000,1.21834755,957.70000000,
8.022773,-0.3212,0.9046,0.1482,0.0189,0.3250,0.2834,12.84349833,77.66314000,1.21834755,957.70000000,
8.023988,0.0516,0.9719,0.3618,0.0189,0.3250,0.2834,12.84349833,77.66314000,1.21834755,957.70000000,
8.036644,0.0516,0.9719,0.3618,0.1301,0.3030,0.2535,12.84349833,77.66314000,1.21834755,957.70000000,
8.043362,0.0516,0.9719,0.3618,0.1301,0.3030,0.2535,12.84349833,77.66314000,1.21834755,957.70000000,
8.044537,0.2659,1.0384,0.2111,0.1301,0.3030,0.2535,12.84349833,77.66314000,1.21834755,957.70000000,
8.055997,0.2659,1.0384,0.2111,0.1093,0.1912,0.1600,12.84349833,77.66314000,1.21834755,957.70000000,
8.064110,0.2659,1.0384,0.2111,0.1093,0.1912,0.1600,12.84349833,77.66314000,1.21834755,957.70000000,
8.065812,0.3960,0.6259,0.0254,0.1093,0.1912,0.1600,12.84349833,77.66314000,1.21834755,957.70000000,
8.077017,0.3960,0.6259,0.0254,-0.1130,0.0244,0.0776,12.84349833,77.66314000,1.21834755,957.70000000,
8.083716,0.3960,0.6259,0.0254,-0.1130,0.0244,0.0776,12.84349833,77.66314000,1.21834755,957.70000000,
8.085993,0.3628,0.2349,0.6594,-0.1130,0.0244,0.0776,12.84349833,77.66314000,1.21834755,957.70000000,
8.095455,0.3628,0.2349,0.6594,-0.2511,-0.0648,0.0709,12.84349833,77.66314000,1.21834755,957.70000000,
8.103811,0.3628,0.2349,0.6594,-0.2511,-0.0648,0.0709,12.84349833,77.66314000,1.21834755,957.70000000,
8.105286,0.3466,-0.2234,2.3803,-0.2511,-0.0648,0.0709,12.84349833,77.66314000,1.21834755,957.70000000,
8.116069,0.3466,-0.2234,2.3803,-0.1075,-0.0531,0.0745,12.84349833,77.66314000,1.21834755,957.70000000,
8.122798,0.3466,-0.2234,2.3803,-0.1075,-0.0531,0.0745,12.84349833,77.66314000,1.21834755,957.70000000,
8.124260,-0.0256,-0.4403,3.1205,-0.1075,-0.0531,0.0745,12.84349833,77.66314000,1.21834755,957.70000000,
8.135018,-0.0256,-0.4403,3.1205,0.2162,0.0403,0.0977,12.84349833,77.66314000,1.21834755,957.70000000,
8.143399,-0.0256,-0.4403,3.1205,0.2162,0.0403,0.0977,12.84349833,77.66314000,1.21834755,957.70000000,
8.144857,-0.5842,-0.4131,2.0372,0.2162,0.0403,0.0977,12.84349833,77.66314000,1.21834755,957.70000000,
8.155471,-0.5842,-0.4131,2.0372,0.2541,-0.0116,0.1576,12.84349833,77.66314000,1.21834755,957.70000000,
8.164620,-0.5842,-0.4131,2.0372,0.2541,-0.0116,0.1576,12.84349833,77.66314000,1.21834755,957.70000000,
8.166411,-0.4969,-0.4367,0.5292,0.2541,-0.0116,0.1576,12.84349833,77.66314000,1.21834755,957.70000000,
8.177805,-0.4969,-0.4367,0.5292,-0.0965,-0.2346,0.2059,12.84349833,77.66314000,1.21834755,957.70000000,
8.183731,-0.4969,-0.4367,0.5292,-0.0965,-0.2346,0.2059,12.84349833,77.66314000,1.21834755,957.70000000,
8.186090,-0.1000,-0.3860,0.4568,-0.0965,-0.2346,0.2059,12.84349833,77.66314000,1.21834755,957.70000000,
8.196809,-0.1000,-0.3860,0.4568,-0.4722,-0.6206,0.2101,12.84349833,77.66314000,1.21834755,957.70000000,
8.203127,-0.1000,-0.3860,0.4568,-0.4722,-0.6206,0.2101,12.84349833,77.66314000,1.21834755,957.70000000,
8.204249,-0.1339,-0.7224,1.9153,-0.4722,-0.6206,0.2101,12.84349833,77.66314000,1.21834755,957.70000000,
8.216552,-0.1339,-0.7224,1.9153,-0.4893,-0.9175,0.1991,12.84349833,77.66314000,1.21834755,957.70000000,
8.223206,-0.1339,-0.7224,1.9153,-0.4893,-0.9175,0.1991,12.84349833,77.66314000,1.21834755,957.70000000,
8.224474,-0.0928,-1.0978,3.6652,-0.4893,-0.9175,0.1991,12.84349833,77.66314000,1.21834755,957.70000000,
8.235437,-0.0928,-1.0978,3.6652,-0.0513,-0.5718,0.1472,12.84349833,77.66314000,1.21834755,957.70000000,
8.242754,-0.0928,-1.0978,3.6652,-0.0513,-0.5718,0.1472,12.84349833,77.66314000,1.21834755,957.70000000,
8.244123,-0.4694,-1.4636,3.5516,-0.0513,-0.5718,0.1472,12.84349833,77.66314000,1.21834755,957.70000000,
8.256071,-0.4694,-1.4636,3.5516,0.3207,0.2199,0.1686,12.84349833,77.66314000,1.21834755,957.70000000,
8.264145,-0.4694,-1.4636,3.5516,0.3207,0.2199,0.1686,12.84349833,77.66314000,1.21834755,957.70000000,
8.267113,-1.2112,-1.4053,1.4007,0.3207,0.2199,0.1686,12.84349833,77.66314000,1.21834755,957.70000000,
8.276546,-1.2112,-1.4053,1.4007,0.2706,0.7831,0.3403,12.84349833,77.66314000,1.21834755,872.50000000,
8.285142,-1.2112,-1.4053,1.4007,0.2706,0.7831,0.3403,12.84376333,77.66309500,1.08349025,872.50000000,
8.288302,-1.2955,-0.8038,-0.5001,0.2706,0.7831,0.3403,12.84376333,77.66309500,1.08349025,872.50000000,
8.300208,-1.2955,-0.8038,-0.5001,-0.1234,0.8644,0.4942,12.84376333,77.66309500,1.08349025,872.50000000,
8.304952,-1.2955,-0.8038,-0.5001,-0.1234,0.8644,0.4942,12.84376333,77.66309500,1.08349025,872.50000000,
8.312062,-0.5744,-0.2851,-0.9871,-0.1234,0.8644,0.4942,12.84376333,77.66309500,1.08349025,872.50000000,
8.315647,-0.5744,-0.2851,-0.9871,-0.5046,0.6176,0.5064,12.84376333,77.66309500,1.08349025,872.50000000,
8.324293,-0.5744,-0.2851,-0.9871,-0.5046,0.6176,0.5064,12.84376333,77.66309500,1.08349025,872.50000000,
8.326233,0.5814,-0.1201,0.1101,-0.5046,0.6176,0.5064,12.84376333,77.66309500,1.08349025,872.50000000,
8.335289,0.5814,-0.1201,0.1101,-0.5278,0.1753,0.3060,12.84376333,77.66309500,1.08349025,872.50000000,
8.343216,0.5814,-0.1201,0.1101,-0.5278,0.1753,0.3060,12.84376333,77.66309500,1.08349025,872.50000000,
8.344894,1.0156,-0.4242,1.3497,-0.5278,0.1753,0.3060,12.84376333,77.66309500,1.08349025,872.50000000,
8.355724,1.0156,-0.4242,1.3497,-0.2443,-0.2376,0.1093,12.84376333,77.66309500,1.08349025,872.50000000,
8.365632,1.0156,-0.4242,1.3497,-0.2443,-0.2376,0.1093,12.84376333,77.66309500,1.08349025,872.50000000,
8.368151,0.5731,-0.7382,1.5484,-0.2443,-0.2376,0.1093,12.84376333,77.66309500,1.08349025,872.50000000,
8.379404,0.5731,-0.7382,1.5484,0.0947,-0.4233,0.0654,12.84376333,77.66309500,1.08349025,872.50000000,
8.384847,0.5731,-0.7382,1.5484,0.0947,-0.4233,0.0654,12.84376333,77.66309500,1.08349025,872.50000000,
8.386492,0.1941,-0.8792,0.7422,0.0947,-0.4233,0.0654,12.84376333,77.66309500,1.08349025,872.50000000,
8.394904,0.1941,-0.8792,0.7422,0.3103,-0.3060,0.0959,12.84376333,77.66309500,1.08349025,872.50000000,
8.402827,0.1941,-0.8792,0.7422,0.3103,-0.3060,0.0959,12.84376333,77.66309500,1.08349025,872.50000000,
8.404730,-0.1966,-0.7279,-0.5524,0.3103,-0.3060,0.0959,12.84376333,77.66309500,1.08349025,872.50000000,
8.416376,-0.1966,-0.7279,-0.5524,0.3586,0.0110,0.1564,12.84376333,77.66309500,1.08349025,872.50000000,
8.424237,-0.1966,-0.7279,-0.5524,0.3586,0.0110,0.1564,12.84376333,77.66309500,1.08349025,872.50000000,
8.426417,-0.4635,-0.4180,-1.5787,0.3586,0.0110,0.1564,12.84376333,77.66309500,1.08349025,872.50000000,
8.434464,-0.4635,-0.4180,-1.5787,0.3195,0.2505,0.2388,12.84376333,77.66309500,1.08349025,872.50000000,
8.443052,-0.4635,-0.4180,-1.5787,0.3195,0.2505,0.2388,12.84376333,77.66309500,1.08349025,872.50000000,
8.444018,-0.3248,-0.5190,-2.4984,0.3195,0.2505,0.2388,12.84376333,77.66309500,1.08349025,872.50000000,
8.458199,-0.3248,-0.5190,-2.4984,0.1857,0.3128,0.2926,12.84376333,77.66309500,1.08349025,872.50000000,
8.464073,-0.3248,-0.5190,-2.4984,0.1857,0.3128,0.2926,12.84376333,77.66309500,1.08349025,872.50000000,
8.464872,0.0792,-0.6566,-3.0124,0.1857,0.3128,0.2926,12.84376333,77.66309500,1.08349025,872.50000000,
8.476264,0.0792,-0.6566,-3.0124,-0.0128,0.2303,0.2950,12.84376333,77.66309500,1.08349025,872.50000000,
8.483891,0.0792,-0.6566,-3.0124,-0.0128,0.2303,0.2950,12.84376333,77.66309500,1.08349025,872.50000000,
8.484548,0.4336,-0.4544,-2.7532,-0.0128,0.2303,0.2950,12.84376333,77.66309500,1.08349025,872.50000000,
8.496941,0.4336,-0.4544,-2.7532,-0.0996,0.0696,0.2547,12.84376333,77.66309500,1.08349025,872.50000000,
8.502551,0.4336,-0.4544,-2.7532,-0.0996,0.0696,0.2547,12.84376333,77.66309500,1.08349025,872.50000000,
8.505033,0.6485,-0.3958,-1.9616,-0.0996,0.0696,0.2547,12.84376333,77.66309500,1.08349025,872.50000000,
8.515398,0.6485,-0.3958,-1.9616,-0.0605,-0.1423,0.1600,12.84376333,77.66309500,1.08349025,872.50000000,
8.524641,0.6485,-0.3958,-1.9616,-0.0605,-0.1423,0.1600,12.84376333,77.66309500,1.08349025,872.50000000,
8.526527,0.4837,-0.2868,-1.1696,-0.0605,-0.1423,0.1600,12.84376333,77.66309500,1.08349025,872.50000000,
8.536674,0.4837,-0.2868,-1.1696,0.0342,-0.2676,0.0886,12.84376333,77.66309500,1.08349025,872.50000000,
8.543640,0.4837,-0.2868,-1.1696,0.0342,-0.2676,0.0886,12.84376333,77.66309500,1.08349025,872.50000000,
8.545495,0.2062,-0.2578,-0.6762,0.0342,-0.2676,0.0886,12.84376333,77.66309500,1.08349025,872.50000000,
8.555399,0.2062,-0.2578,-0.6762,0.1136,-0.1918,0.0800,12.84376333,77.66309500,1.08349025,872.50000000,
8.563693,0.2062,-0.2578,-0.6762,0.1136,-0.1918,0.0800,12.84376333,77.66309500,1.08349025,872.50000000,
8.566203,0.1495,-0.3662,-0.4452,0.1136,-0.1918,0.0800,12.84376333,77.66309500,1.08349025,872.50000000,
8.575629,0.1495,-0.3662,-0.4452,0.1649,-0.0238,0.1014,12.84376333,77.66309500,1.08349025,872.50000000,
8.584584,0.1495,-0.3662,-0.4452,0.1649,-0.0238,0.1014,12.84376333,77.66309500,1.08349025,872.50000000,
8.586913,0.1147,-0.2686,-0.2429,0.1649,-0.0238,0.1014,12.84376333,77.66309500,1.08349025,872.50000000,
8.594572,0.1147,-0.2686,-0.2429,0.1998,0.0751,0.1307,12.84376333,77.66309500,1.08349025,872.50000000,
8.603009,0.1147,-0.2686,-0.2429,0.1998,0.0751,0.1307,12.84376333,77.66309500,1.08349025,872.50000000,
8.605066,0.2311,-0.0646,-0.1277,0.1998,0.0751,0.1307,12.84376333,77.66309500,1.08349025,872.50000000,
8.615512,0.2311,-0.0646,-0.1277,0.2114,0.1252,0.1246,12.84376333,77.66309500,1.08349025,872.50000000,
8.622914,0.2311,-0.0646,-0.1277,0.2114,0.1252,0.1246,12.84376333,77.66309500,1.08349025,872.50000000,
8.624234,0.3706,0.1635,-0.0955,0.2114,0.1252,0.1246,12.84376333,77.66309500,1.08349025,872.50000000,
8.635144,0.3706,0.1635,-0.0955,0.1857,0.1393,0.0721,12.84376333,77.66309500,1.08349025,872.50000000,
8.642744,0.3706,0.1635,-0.0955,0.1857,0.1393,0.0721,12.84376333,77.66309500,1.08349025,872.50000000,
8.644318,0.6174,0.2288,-0.0186,0.1857,0.1393,0.0721,12.84376333,77.66309500,1.08349025,872.50000000,
8.656212,0.6174,0.2288,-0.0186,0.1594,0.1411,-0.0171,12.84376333,77.66309500,1.08349025,872.50000000,
8.663450,0.6174,0.2288,-0.0186,0.1594,0.1411,-0.0171,12.84376333,77.66309500,1.08349025,872.50000000,
