
time,ax,ay,az,wx,wy,wz,Latitude,Longitude,Speed (m/s),Altitude (m),
0.016042,0.0000,0.0000,0.0000,0.7288,0.5119,0.5186,0.00000000,0.00000000,0.00000000,848.90000000,
0.027000,0.0000,0.0000,0.0000,0.7288,0.5119,0.5186,12.84504833,77.66385667,0.02779500,848.90000000,
0.036084,0.0000,0.0000,0.0000,0.4917,0.0941,0.5779,12.84504833,77.66385667,0.02779500,848.90000000,
0.046772,0.0000,0.0000,0.0000,0.4917,0.0941,0.5779,12.84504833,77.66385667,0.02779500,848.90000000,
0.047566,0.0107,-0.0090,-0.0283,0.4917,0.0941,0.5779,12.84504833,77.66385667,0.02779500,848.90000000,
0.055305,0.0107,-0.0090,-0.0283,0.0886,-0.1246,0.7220,12.84504833,77.66385667,0.02779500,848.90000000,
0.066532,0.0107,-0.0090,-0.0283,0.0886,-0.1246,0.7220,12.84504833,77.66385667,0.02779500,848.90000000,
0.067411,0.2050,-0.0411,0.1423,0.0886,-0.1246,0.7220,12.84504833,77.66385667,0.02779500,848.90000000,
0.075858,0.2050,-0.0411,0.1423,-0.1558,-0.0550,0.8473,12.84504833,77.66385667,0.02779500,848.90000000,
0.086266,0.2050,-0.0411,0.1423,-0.1558,-0.0550,0.8473,12.84504833,77.66385667,0.02779500,848.90000000,
0.087033,0.0793,-0.1914,0.7650,-0.1558,-0.0550,0.8473,12.84504833,77.66385667,0.02779500,848.90000000,
0.096116,0.0793,-0.1914,0.7650,0.0318,0.1075,1.0079,12.84504833,77.66385667,0.02779500,848.90000000,
0.107059,0.0793,-0.1914,0.7650,0.0318,0.1075,1.0079,12.84504833,77.66385667,0.02779500,848.90000000,
0.107808,0.2771,-0.2766,1.1736,0.0318,0.1075,1.0079,12.84504833,77.66385667,0.02779500,848.90000000,
0.116825,0.2771,-0.2766,1.1736,0.4038,0.2217,1.0751,12.84504833,77.66385667,0.02779500,848.90000000,
0.126920,0.2771,-0.2766,1.1736,0.4038,0.2217,1.0751,12.84504833,77.66385667,0.02779500,848.90000000,
0.128497,0.2186,-0.0852,0.6215,0.4038,0.2217,1.0751,12.84504833,77.66385667,0.02779500,848.90000000,
0.135237,0.2186,-0.0852,0.6215,0.6457,0.2889,1.1057,12.84504833,77.66385667,0.02779500,848.90000000,
0.146772,0.2186,-0.0852,0.6215,0.6457,0.2889,1.1057,12.84504833,77.66385667,0.02779500,848.90000000,
0.148470,-0.2278,0.2379,0.2069,0.6457,0.2889,1.1057,12.84504833,77.66385667,0.02779500,848.90000000,
0.156371,-0.2278,0.2379,0.2069,0.8314,0.3048,1.2126,12.84504833,77.66385667,0.02779500,848.90000000,
0.166865,-0.2278,0.2379,0.2069,0.8314,0.3048,1.2126,12.84504833,77.66385667,0.02779500,848.90000000,
0.168293,-0.0686,0.0901,-0.0491,0.8314,0.3048,1.2126,12.84504833,77.66385667,0.02779500,848.90000000,
0.175641,-0.0686,0.0901,-0.0491,1.1264,0.2926,1.3176,12.84504833,77.66385667,0.02779500,848.90000000,
0.187152,-0.0686,0.0901,-0.0491,1.1264,0.2926,1.3176,12.84504833,77.66385667,0.02779500,848.90000000,
0.187962,0.5103,-0.0341,0.2200,1.1264,0.2926,1.3176,12.84504833,77.66385667,0.02779500,848.90000000,
0.196044,0.5103,-0.0341,0.2200,1.5779,0.4667,1.4447,12.84504833,77.66385667,0.02779500,848.90000000,
0.207377,0.5103,-0.0341,0.2200,1.5779,0.4667,1.4447,12.84504833,77.66385667,0.02779500,848.90000000,
0.209082,1.3050,0.2880,-0.2491,1.5779,0.4667,1.4447,12.84504833,77.66385667,0.02779500,848.90000000,
0.216047,1.3050,0.2880,-0.2491,1.8925,1.1570,1.5094,12.84504833,77.66385667,0.02779500,848.90000000,
0.228516,1.3050,0.2880,-0.2491,1.8925,1.1570,1.5094,12.84504833,77.66385667,0.02779500,848.90000000,
0.230326,0.1213,0.4875,-0.2837,1.8925,1.1570,1.5094,12.84504833,77.66385667,0.02779500,848.90000000,
0.235169,0.1213,0.4875,-0.2837,1.7575,1.0873,1.5797,12.84504833,77.66385667,0.02779500,848.90000000,
0.246943,0.1213,0.4875,-0.2837,1.7575,1.0873,1.5797,12.84504833,77.66385667,0.02779500,848.90000000,
0.248885,-0.7335,0.1818,-1.4163,1.7575,1.0873,1.5797,12.84504833,77.66385667,0.02779500,848.90000000,
0.255108,-0.7335,0.1818,-1.4163,1.1594,0.4465,1.4600,12.84504833,77.66385667,0.02779500,848.90000000,
0.266658,-0.7335,0.1818,-1.4163,1.1594,0.4465,1.4600,12.84504833,77.66385667,0.02779500,848.90000000,
0.267528,0.4503,-0.0356,-2.8043,1.1594,0.4465,1.4600,12.84504833,77.66385667,0.02779500,848.90000000,
0.276317,0.4503,-0.0356,-2.8043,0.5119,0.6726,1.1991,12.84504833,77.66385667,0.02779500,848.90000000,
0.286986,0.4503,-0.0356,-2.8043,0.5119,0.6726,1.1991,12.84504833,77.66385667,0.02779500,848.90000000,
0.287849,0.7366,-0.0364,-1.6942,0.5119,0.6726,1.1991,12.84504833,77.66385667,0.02779500,848.90000000,
0.295614,0.7366,-0.0364,-1.6942,-0.1698,0.7984,1.0043,12.84504833,77.66385667,0.02779500,848.90000000,
0.307051,0.7366,-0.0364,-1.6942,-0.1698,0.7984,1.0043,12.84504833,77.66385667,0.02779500,848.90000000,
0.307905,0.0375,0.0293,-0.4601,-0.1698,0.7984,1.0043,12.84504833,77.66385667,0.02779500,848.90000000,
0.316226,0.0375,0.0293,-0.4601,-0.7068,0.4899,0.8534,12.84504833,77.66385667,0.02779500,848.90000000,
0.326243,0.0375,0.0293,-0.4601,-0.7068,0.4899,0.8534,12.84504833,77.66385667,0.02779500,848.90000000,
0.327010,0.0283,0.5355,1.5793,-0.7068,0.4899,0.8534,12.84504833,77.66385667,0.02779500,848.90000000,
0.335266,0.0283,0.5355,1.5793,-0.6646,0.2297,0.7880,12.84504833,77.66385667,0.02779500,848.90000000,
0.346732,0.0283,0.5355,1.5793,-0.6646,0.2297,0.7880,12.84504833,77.66385667,0.02779500,848.90000000,
0.347626,0.2234,0.5395,2.4064,-0.6646,0.2297,0.7880,12.84504833,77.66385667,0.02779500,848.90000000,
0.356017,0.2234,0.5395,2.4064,-0.4111,-0.1826,0.7263,12.84504833,77.66385667,0.02779500,848.90000000,
0.367444,0.2234,0.5395,2.4064,-0.4111,-0.1826,0.7263,12.84504833,77.66385667,0.02779500,848.90000000,
0.368110,0.2658,0.4864,1.9732,-0.4111,-0.1826,0.7263,12.84504833,77.66385667,0.02779500,848.90000000,
0.375106,0.2658,0.4864,1.9732,-0.2755,-0.5064,0.6469,12.84504833,77.66385667,0.02779500,848.90000000,
0.387654,0.2658,0.4864,1.9732,-0.2755,-0.5064,0.6469,12.84504833,77.66385667,0.02779500,848.90000000,
0.389212,0.4986,0.3811,0.8028,-0.2755,-0.5064,0.6469,12.84504833,77.66385667,0.02779500,848.90000000,
0.396937,0.4986,0.3811,0.8028,-0.5235,-0.7697,0.4667,12.84504833,77.66385667,0.02779500,848.90000000,
0.407352,0.4986,0.3811,0.8028,-0.5235,-0.7697,0.4667,12.84504833,77.66385667,0.02779500,848.90000000,
0.408091,0.8611,-0.1919,0.5057,-0.5235,-0.7697,0.4667,12.84504833,77.66385667,0.02779500,848.90000000,
0.416017,0.8611,-0.1919,0.5057,-0.8491,-0.3818,0.2993,12.84504833,77.66385667,0.02779500,848.90000000,
0.426243,0.8611,-0.1919,0.5057,-0.8491,-0.3818,0.2993,12.84504833,77.66385667,0.02779500,848.90000000,
0.426939,1.1157,-1.0550,1.0326,-0.8491,-0.3818,0.2993,12.84504833,77.66385667,0.02779500,848.90000000,
0.435272,1.1157,-1.0550,1.0326,-1.0098,0.1704,0.2828,12.84504833,77.66385667,0.02779500,848.90000000,
0.447911,1.1157,-1.0550,1.0326,-1.0098,0.1704,0.2828,12.84504833,77.66385667,0.02779500,848.20000000,
0.448642,1.0037,-1.3986,1.9859,-1.0098,0.1704,0.2828,12.84505500,77.66385833,0.70465469,848.20000000,
0.455077,1.0037,-1.3986,1.9859,-1.0275,0.4368,0.3977,12.84505500,77.66385833,0.70465469,848.20000000,
0.467350,1.0037,-1.3986,1.9859,-1.0275,0.4368,0.3977,12.84505500,77.66385833,0.70465469,848.20000000,
0.468121,1.3775,-1.2202,3.8706,-1.0275,0.4368,0.3977,12.84505500,77.66385833,0.70465469,848.20000000,
0.475580,1.3775,-1.2202,3.8706,-0.6487,0.3506,0.5052,12.84505500,77.66385833,0.70465469,848.20000000,
0.487046,1.3775,-1.2202,3.8706,-0.6487,0.3506,0.5052,12.84505500,77.66385833,0.70465469,848.20000000,
0.487810,2.1951,-1.0359,3.5670,-0.6487,0.3506,0.5052,12.84505500,77.66385833,0.70465469,848.20000000,
0.495850,2.1951,-1.0359,3.5670,-0.1307,0.3519,0.5895,12.84505500,77.66385833,0.70465469,848.20000000,
0.507849,2.1951,-1.0359,3.5670,-0.1307,0.3519,0.5895,12.84505500,77.66385833,0.70465469,848.20000000,
0.508545,2.0247,-0.9741,2.0610,-0.1307,0.3519,0.5895,12.84505500,77.66385833,0.70465469,848.20000000,
0.515598,2.0247,-0.9741,2.0610,0.1582,0.1729,0.6756,12.84505500,77.66385833,0.70465469,848.20000000,
0.526701,2.0247,-0.9741,2.0610,0.1582,0.1729,0.6756,12.84505500,77.66385833,0.70465469,848.20000000,
0.527385,1.9838,0.3048,1.4979,0.1582,0.1729,0.6756,12.84505500,77.66385833,0.70465469,848.20000000,
0.535396,1.9838,0.3048,1.4979,0.3219,-0.2578,0.6872,12.84505500,77.66385833,0.70465469,848.20000000,
0.546667,1.9838,0.3048,1.4979,0.3219,-0.2578,0.6872,12.84505500,77.66385833,0.70465469,848.20000000,
0.548135,2.2982,0.0217,0.8457,0.3219,-0.2578,0.6872,12.84505500,77.66385833,0.70465469,848.20000000,
0.555222,2.2982,0.0217,0.8457,0.3897,-0.2572,0.5675,12.84505500,77.66385833,0.70465469,848.20000000,
0.566242,2.2982,0.0217,0.8457,0.3897,-0.2572,0.5675,12.84505500,77.66385833,0.70465469,848.20000000,
0.566945,2.5022,-0.6493,0.0009,0.3897,-0.2572,0.5675,12.84505500,77.66385833,0.70465469,848.20000000,
0.575631,2.5022,-0.6493,0.0009,0.1930,-0.0733,0.3445,12.84505500,77.66385833,0.70465469,848.20000000,
0.587184,2.5022,-0.6493,0.0009,0.1930,-0.0733,0.3445,12.84505500,77.66385833,0.70465469,848.20000000,
0.588082,2.4299,-0.9878,-0.5919,0.1930,-0.0733,0.3445,12.84505500,77.66385833,0.70465469,848.20000000,
0.596216,2.4299,-0.9878,-0.5919,0.0012,0.2034,0.2272,12.84505500,77.66385833,0.70465469,848.20000000,
0.606605,2.4299,-0.9878,-0.5919,0.0012,0.2034,0.2272,12.84505500,77.66385833,0.70465469,848.20000000,
0.607596,2.1405,-1.0880,-0.5826,0.0012,0.2034,0.2272,12.84505500,77.66385833,0.70465469,848.20000000,
0.615024,2.1405,-1.0880,-0.5826,-0.1478,0.1576,0.2492,12.84505500,77.66385833,0.70465469,848.20000000,
0.626561,2.1405,-1.0880,-0.5826,-0.1478,0.1576,0.2492,12.84505500,77.66385833,0.70465469,848.20000000,
0.627355,1.9662,-0.6996,-0.5136,-0.1478,0.1576,0.2492,12.84505500,77.66385833,0.70465469,848.20000000,
0.635362,1.9662,-0.6996,-0.5136,-0.2242,0.0446,0.2382,12.84505500,77.66385833,0.70465469,848.20000000,
0.647240,1.9662,-0.6996,-0.5136,-0.2242,0.0446,0.2382,12.84505500,77.66385833,0.70465469,848.20000000,
0.649144,1.6838,-0.4988,-0.5010,-0.2242,0.0446,0.2382,12.84505500,77.66385833,0.70465469,848.20000000,
0.655470,1.6838,-0.4988,-0.5010,-0.2847,-0.2089,0.1692,12.84505500,77.66385833,0.70465469,848.20000000,
0.666831,1.6838,-0.4988,-0.5010,-0.2847,-0.2089,0.1692,12.84505500,77.66385833,0.70465469,848.20000000,
0.667914,0.8832,-0.2157,-0.9117,-0.2847,-0.2089,0.1692,12.84505500,77.66385833,0.70465469,848.20000000,
0.675867,0.8832,-0.2157,-0.9117,-0.2950,-0.1301,0.2462,12.84505500,77.66385833,0.70465469,848.20000000,
0.687057,0.8832,-0.2157,-0.9117,-0.2950,-0.1301,0.2462,12.84505500,77.66385833,0.70465469,848.20000000,
0.688244,1.0286,-0.4206,-1.1169,-0.2950,-0.1301,0.2462,12.84505500,77.66385833,0.70465469,848.20000000,
0.697062,1.0286,-0.4206,-1.1169,-0.4325,-0.2053,0.2822,12.84505500,77.66385833,0.70465469,848.20000000,
0.707036,1.0286,-0.4206,-1.1169,-0.4325,-0.2053,0.2822,12.84505500,77.66385833,0.70465469,848.20000000,
0.708009,1.6726,-0.2541,-0.5804,-0.4325,-0.2053,0.2822,12.84505500,77.66385833,0.70465469,848.20000000,
0.715204,1.6726,-0.2541,-0.5804,-0.4221,-0.0434,0.2101,12.84505500,77.66385833,0.70465469,848.20000000,
0.726729,1.6726,-0.2541,-0.5804,-0.4221,-0.0434,0.2101,12.84505500,77.66385833,0.70465469,848.20000000,
0.727562,1.7752,-0.2879,-0.6276,-0.4221,-0.0434,0.2101,12.84505500,77.66385833,0.70465469,848.20000000,
0.735382,1.7752,-0.2879,-0.6276,-0.3891,0.3897,0.1301,12.84505500,77.66385833,0.70465469,848.20000000,
0.746984,1.7752,-0.2879,-0.6276,-0.3891,0.3897,0.1301,12.84505500,77.66385833,0.70465469,848.20000000,
0.748095,1.3936,-0.3805,-0.8409,-0.3891,0.3897,0.1301,12.84505500,77.66385833,0.70465469,848.20000000,
0.756097,1.3936,-0.3805,-0.8409,-0.3781,0.4649,0.1399,12.84505500,77.66385833,0.70465469,848.20000000,
0.767362,1.3936,-0.3805,-0.8409,-0.3781,0.4649,0.1399,12.84505500,77.66385833,0.70465469,848.20000000,
0.768374,0.9527,-0.0540,-1.3799,-0.3781,0.4649,0.1399,12.84505500,77.66385833,0.70465469,848.20000000,
0.775868,0.9527,-0.0540,-1.3799,-0.3891,0.1796,0.2566,12.84505500,77.66385833,0.70465469,848.20000000,
0.787113,0.9527,-0.0540,-1.3799,-0.3891,0.1796,0.2566,12.84505500,77.66385833,0.70465469,848.20000000,
0.788014,0.7162,-0.0074,-0.8581,-0.3891,0.1796,0.2566,12.84505500,77.66385833,0.70465469,848.20000000,
0.796186,0.7162,-0.0074,-0.8581,-0.3525,-0.3457,0.3775,12.84505500,77.66385833,0.70465469,848.20000000,
0.806277,0.7162,-0.0074,-0.8581,-0.3525,-0.3457,0.3775,12.84505500,77.66385833,0.70465469,848.20000000,
0.807046,0.7891,0.3697,-0.2779,-0.3525,-0.3457,0.3775,12.84505500,77.66385833,0.70465469,848.20000000,
0.815653,0.7891,0.3697,-0.2779,-0.1600,-0.6212,0.4789,12.84505500,77.66385833,0.70465469,848.20000000,
0.828104,0.7891,0.3697,-0.2779,-0.1600,-0.6212,0.4789,12.84505500,77.66385833,0.70465469,848.20000000,
0.828942,0.5157,0.1901,-1.2538,-0.1600,-0.6212,0.4789,12.84505500,77.66385833,0.70465469,848.20000000,
0.835493,0.5157,0.1901,-1.2538,0.0165,-0.8503,0.5669,12.84505500,77.66385833,0.70465469,848.20000000,
0.848097,0.5157,0.1901,-1.2538,0.0165,-0.8503,0.5669,12.84505500,77.66385833,0.70465469,848.20000000,
0.849155,1.1871,-0.0899,-1.8251,0.0165,-0.8503,0.5669,12.84505500,77.66385833,0.70465469,848.20000000,
0.855246,1.1871,-0.0899,-1.8251,0.0586,-1.0507,0.3348,12.84505500,77.66385833,0.70465469,848.20000000,
0.867547,1.1871,-0.0899,-1.8251,0.0586,-1.0507,0.3348,12.84505500,77.66385833,0.70465469,848.20000000,
0.868908,1.2696,-0.1736,-1.4236,0.0586,-1.0507,0.3348,12.84505500,77.66385833,0.70465469,848.20000000,
0.875736,1.2696,-0.1736,-1.4236,-0.0043,-1.0311,0.0819,12.84505500,77.66385833,0.70465469,848.20000000,
0.887174,1.2696,-0.1736,-1.4236,-0.0043,-1.0311,0.0819,12.84505500,77.66385833,0.70465469,848.20000000,
0.888173,0.6163,-0.0475,-0.9799,-0.0043,-1.0311,0.0819,12.84505500,77.66385833,0.70465469,848.20000000,
0.895588,0.6163,-0.0475,-0.9799,-0.0134,-0.9029,0.1283,12.84505500,77.66385833,0.70465469,848.20000000,
0.906353,0.6163,-0.0475,-0.9799,-0.0134,-0.9029,0.1283,12.84505500,77.66385833,0.70465469,848.20000000,
0.907215,0.2697,0.0367,-0.6337,-0.0134,-0.9029,0.1283,12.84505500,77.66385833,0.70465469,848.20000000,
0.915313,0.2697,0.0367,-0.6337,0.0922,-0.7837,0.3250,12.84505500,77.66385833,0.70465469,848.20000000,
0.927046,0.2697,0.0367,-0.6337,0.0922,-0.7837,0.3250,12.84505500,77.66385833,0.70465469,848.20000000,
0.928703,0.5468,-0.0956,-0.2127,0.0922,-0.7837,0.3250,12.84505500,77.66385833,0.70465469,848.20000000,
0.935798,0.5468,-0.0956,-0.2127,0.2731,-0.7453,0.4019,12.84505500,77.66385833,0.70465469,848.20000000,
0.947657,0.5468,-0.0956,-0.2127,0.2731,-0.7453,0.4019,12.84505500,77.66385833,0.70465469,848.20000000,
0.948641,0.7229,-0.1272,0.1922,0.2731,-0.7453,0.4019,12.84505500,77.66385833,0.70465469,848.20000000,
0.954985,0.7229,-0.1272,0.1922,0.2877,-0.7709,0.3885,12.84505500,77.66385833,0.70465469,848.20000000,
0.967265,0.7229,-0.1272,0.1922,0.2877,-0.7709,0.3885,12.84505500,77.66385833,0.70465469,848.20000000,
0.968234,0.0034,0.2637,0.0283,0.2877,-0.7709,0.3885,12.84505500,77.66385833,0.70465469,848.20000000,
0.975723,0.0034,0.2637,0.0283,0.2114,-0.3732,0.4630,12.84505500,77.66385833,0.70465469,848.20000000,
0.987573,0.0034,0.2637,0.0283,0.2114,-0.3732,0.4630,12.84505500,77.66385833,0.70465469,848.20000000,
0.988446,0.6716,0.6652,-0.2696,0.2114,-0.3732,0.4630,12.84505500,77.66385833,0.70465469,848.20000000,
0.996207,0.6716,0.6652,-0.2696,0.1484,0.1161,0.4875,12.84505500,77.66385833,0.70465469,848.20000000,
1.006618,0.6716,0.6652,-0.2696,0.1484,0.1161,0.4875,12.84505500,77.66385833,0.70465469,848.20000000,
1.007461,0.6877,0.7076,-0.3481,0.1484,0.1161,0.4875,12.84505500,77.66385833,0.70465469,848.20000000,
1.015575,0.6877,0.7076,-0.3481,0.0898,0.5669,0.4759,12.84505500,77.66385833,0.70465469,848.20000000,
1.027794,0.6877,0.7076,-0.3481,0.0898,0.5669,0.4759,12.84505500,77.66385833,0.70465469,848.20000000,
1.028646,0.7981,0.7415,0.2929,0.0898,0.5669,0.4759,12.84505500,77.66385833,0.70465469,848.20000000,
1.035510,0.7981,0.7415,0.2929,0.0574,0.8033,0.4881,12.84505500,77.66385833,0.70465469,848.20000000,
1.047436,0.7981,0.7415,0.2929,0.0574,0.8033,0.4881,12.84505500,77.66385833,0.70465469,848.20000000,
1.048706,0.8669,0.4308,0.6247,0.0574,0.8033,0.4881,12.84505500,77.66385833,0.70465469,848.20000000,
1.055771,0.8669,0.4308,0.6247,0.0250,0.9206,0.4801,12.84505500,77.66385833,0.70465469,848.20000000,
1.067326,0.8669,0.4308,0.6247,0.0250,0.9206,0.4801,12.84505500,77.66385833,0.70465469,848.20000000,
1.068161,1.1558,-0.0050,1.3129,0.0250,0.9206,0.4801,12.84505500,77.66385833,0.70465469,848.20000000,
1.076136,1.1558,-0.0050,1.3129,-0.0177,0.6982,0.3574,12.84505500,77.66385833,0.70465469,848.20000000,
1.086881,1.1558,-0.0050,1.3129,-0.0177,0.6982,0.3574,12.84505500,77.66385833,0.70465469,848.20000000,
1.087821,0.7943,-0.1438,1.9506,-0.0177,0.6982,0.3574,12.84505500,77.66385833,0.70465469,848.20000000,
1.095288,0.7943,-0.1438,1.9506,0.0507,0.5644,0.2718,12.84505500,77.66385833,0.70465469,848.20000000,
1.107054,0.7943,-0.1438,1.9506,0.0507,0.5644,0.2718,12.84505500,77.66385833,0.70465469,848.20000000,
1.108001,0.4341,-0.1996,1.9649,0.0507,0.5644,0.2718,12.84505500,77.66385833,0.70465469,848.20000000,
1.115356,0.4341,-0.1996,1.9649,0.1625,0.6158,0.3067,12.84505500,77.66385833,0.70465469,848.20000000,
1.126488,0.4341,-0.1996,1.9649,0.1625,0.6158,0.3067,12.84505500,77.66385833,0.70465469,848.20000000,
1.127256,0.4284,-0.3299,1.9372,0.1625,0.6158,0.3067,12.84505500,77.66385833,0.70465469,848.20000000,
1.135563,0.4284,-0.3299,1.9372,0.1851,0.5614,0.3286,12.84505500,77.66385833,0.70465469,848.20000000,
1.147503,0.4284,-0.3299,1.9372,0.1851,0.5614,0.3286,12.84505500,77.66385833,0.70465469,848.20000000,
1.148472,0.4564,-0.5299,1.9185,0.1851,0.5614,0.3286,12.84505500,77.66385833,0.70465469,848.20000000,
1.155837,0.4564,-0.5299,1.9185,0.1258,0.6671,0.2950,12.84505500,77.66385833,0.70465469,848.20000000,
1.167216,0.4564,-0.5299,1.9185,0.1258,0.6671,0.2950,12.84505500,77.66385833,0.70465469,848.20000000,
1.168123,0.3762,-1.0014,2.2990,0.1258,0.6671,0.2950,12.84505500,77.66385833,0.70465469,848.20000000,
1.175855,0.3762,-1.0014,2.2990,-0.0434,0.6909,0.3012,12.84505500,77.66385833,0.70465469,848.20000000,
1.187735,0.3762,-1.0014,2.2990,-0.0434,0.6909,0.3012,12.84505500,77.66385833,0.70465469,848.20000000,
1.188617,0.8194,-1.4972,3.0569,-0.0434,0.6909,0.3012,12.84505500,77.66385833,0.70465469,848.20000000,
1.195303,0.8194,-1.4972,3.0569,-0.2718,0.3580,0.2553,12.84505500,77.66385833,0.70465469,848.20000000,
1.206748,0.8194,-1.4972,3.0569,-0.2718,0.3580,0.2553,12.84505500,77.66385833,0.70465469,848.20000000,
1.207708,0.8445,-1.6125,3.9774,-0.2718,0.3580,0.2553,12.84505500,77.66385833,0.70465469,848.20000000,
1.215273,0.8445,-1.6125,3.9774,-0.2162,0.2688,0.2022,12.84505500,77.66385833,0.70465469,848.20000000,
1.228005,0.8445,-1.6125,3.9774,-0.2162,0.2688,0.2022,12.84505500,77.66385833,0.70465469,848.20000000,
1.229696,0.4277,-1.6390,3.9683,-0.2162,0.2688,0.2022,12.84505500,77.66385833,0.70465469,848.20000000,
1.236081,0.4277,-1.6390,3.9683,0.1240,0.5528,0.2834,12.84505500,77.66385833,0.70465469,848.20000000,
1.247790,0.4277,-1.6390,3.9683,0.1240,0.5528,0.2834,12.84505500,77.66385833,0.70465469,848.20000000,
1.249349,0.4923,-1.6758,2.5543,0.1240,0.5528,0.2834,12.84505500,77.66385833,0.70465469,848.20000000,
1.255907,0.4923,-1.6758,2.5543,0.2938,0.9346,0.3665,12.84505500,77.66385833,0.70465469,848.20000000,
1.268319,0.4923,-1.6758,2.5543,0.2938,0.9346,0.3665,12.84505500,77.66385833,0.70465469,848.20000000,
1.269204,0.5265,-1.3039,1.0826,0.2938,0.9346,0.3665,12.84505500,77.66385833,0.70465469,848.20000000,
1.276162,0.5265,-1.3039,1.0826,0.1582,1.0427,0.4148,12.84505500,77.66385833,0.70465469,848.20000000,
1.286323,0.5265,-1.3039,1.0826,0.1582,1.0427,0.4148,12.84505500,77.66385833,0.70465469,848.20000000,
1.287284,0.4543,-0.8854,0.6577,0.1582,1.0427,0.4148,12.84505500,77.66385833,0.70465469,848.20000000,
1.295560,0.4543,-0.8854,0.6577,-0.0324,0.7984,0.4172,12.84505500,77.66385833,0.70465469,848.20000000,
1.306927,0.4543,-0.8854,0.6577,-0.0324,0.7984,0.4172,12.84505500,77.66385833,0.70465469,848.20000000,
1.307826,0.3457,-0.9094,0.5063,-0.0324,0.7984,0.4172,12.84505500,77.66385833,0.70465469,848.20000000,
1.315404,0.3457,-0.9094,0.5063,-0.1246,0.3903,0.3488,12.84505500,77.66385833,0.70465469,848.20000000,
1.328882,0.3457,-0.9094,0.5063,-0.1246,0.3903,0.3488,12.84505500,77.66385833,0.70465469,848.20000000,
1.330571,0.1020,-1.1630,-0.2866,-0.1246,0.3903,0.3488,12.84505500,77.66385833,0.70465469,848.20000000,
1.335685,0.1020,-1.1630,-0.2866,-0.1747,0.0825,0.3384,12.84505500,77.66385833,0.70465469,848.20000000,
1.348486,0.1020,-1.1630,-0.2866,-0.1747,0.0825,0.3384,12.84505500,77.66385833,0.70465469,848.20000000,
1.351644,0.0502,-1.2706,-1.0063,-0.1747,0.0825,0.3384,12.84505500,77.66385833,0.70465469,848.20000000,
1.358395,0.0502,-1.2706,-1.0063,-0.2511,-0.1350,0.4472,12.84505500,77.66385833,0.70465469,848.20000000,
1.368437,0.0502,-1.2706,-1.0063,-0.2511,-0.1350,0.4472,12.84505500,77.66385833,0.70465469,848.20000000,
1.370323,0.1794,-1.2280,-1.3372,-0.2511,-0.1350,0.4472,12.84505500,77.66385833,0.70465469,848.20000000,
1.375982,0.1794,-1.2280,-1.3372,-0.3225,-0.2938,0.5406,12.84505500,77.66385833,0.70465469,848.20000000,
1.387696,0.1794,-1.2280,-1.3372,-0.3225,-0.2938,0.5406,12.84505500,77.66385833,0.70465469,848.20000000,
1.389932,0.5159,-1.0548,-1.1448,-0.3225,-0.2938,0.5406,12.84505500,77.66385833,0.70465469,848.20000000,
1.396287,0.5159,-1.0548,-1.1448,-0.2688,-0.3122,0.5797,12.84505500,77.66385833,0.70465469,848.20000000,
1.407306,0.5159,-1.0548,-1.1448,-0.2688,-0.3122,0.5797,12.84505500,77.66385833,0.70465469,848.20000000,
1.410206,0.4793,-0.8020,-1.0388,-0.2688,-0.3122,0.5797,12.84505500,77.66385833,0.70465469,848.20000000,
1.415543,0.4793,-0.8020,-1.0388,-0.1307,-0.3122,0.6298,12.84505500,77.66385833,0.70465469,848.20000000,
1.428664,0.4793,-0.8020,-1.0388,-0.1307,-0.3122,0.6298,12.84505500,77.66385833,0.70465469,848.20000000,
1.430255,0.3973,-0.6684,-1.3447,-0.1307,-0.3122,0.6298,12.84505500,77.66385833,0.70465469,848.20000000,
1.435321,0.3973,-0.6684,-1.3447,-0.0171,-0.2608,0.6585,12.84505500,77.66385833,0.70465469,848.20000000,
1.447826,0.3973,-0.6684,-1.3447,-0.0171,-0.2608,0.6585,12.84505500,77.66385833,0.70465469,848.20000000,
1.449754,0.5436,-0.7519,-2.1785,-0.0171,-0.2608,0.6585,12.84505500,77.66385833,0.70465469,848.20000000,
1.456685,0.5436,-0.7519,-2.1785,-0.0953,-0.0855,0.6078,12.84505500,77.66385833,0.70465469,848.20000000,
1.468265,0.5436,-0.7519,-2.1785,-0.0953,-0.0855,0.6078,12.84505500,77.66385833,0.70465469,848.20000000,
1.469851,0.6869,-0.7661,-2.6050,-0.0953,-0.0855,0.6078,12.84505500,77.66385833,0.70465469,848.20000000,
1.476326,0.6869,-0.7661,-2.6050,-0.2810,0.1362,0.5376,12.84505500,77.66385833,0.70465469,848.20000000,
1.486864,0.6869,-0.7661,-2.6050,-0.2810,0.1362,0.5376,12.84505500,77.66385833,0.70465469,848.20000000,
1.488608,0.7056,-0.7986,-2.3735,-0.2810,0.1362,0.5376,12.84505500,77.66385833,0.70465469,848.20000000,
1.496142,0.7056,-0.7986,-2.3735,-0.4484,0.2584,0.4801,12.84505500,77.66385833,0.70465469,848.20000000,
1.507773,0.7056,-0.7986,-2.3735,-0.4484,0.2584,0.4801,12.84505500,77.66385833,0.70465469,848.20000000,
1.509523,0.7678,-0.7052,-1.6834,-0.4484,0.2584,0.4801,12.84505500,77.66385833,0.70465469,848.20000000,
1.516359,0.7678,-0.7052,-1.6834,-0.5113,0.3335,0.4417,12.84505500,77.66385833,0.70465469,848.20000000,
1.529246,0.7678,-0.7052,-1.6834,-0.5113,0.3335,0.4417,12.84505500,77.66385833,0.70465469,848.20000000,
1.531393,0.7391,-0.6758,-1.0898,-0.5113,0.3335,0.4417,12.84505500,77.66385833,0.70465469,848.20000000,
1.536974,0.7391,-0.6758,-1.0898,-0.4429,0.4276,0.4136,12.84505500,77.66385833,0.70465469,848.20000000,
1.548566,0.7391,-0.6758,-1.0898,-0.4429,0.4276,0.4136,12.84505500,77.66385833,0.70465469,848.20000000,
1.550490,0.5940,-0.7760,-1.1116,-0.4429,0.4276,0.4136,12.84505500,77.66385833,0.70465469,848.20000000,
1.556000,0.5940,-0.7760,-1.1116,-0.3561,0.4154,0.3836,12.84505500,77.66385833,0.70465469,848.20000000,
1.567501,0.5940,-0.7760,-1.1116,-0.3561,0.4154,0.3836,12.84505500,77.66385833,0.70465469,848.20000000,
1.569107,0.4965,-0.7102,-1.2790,-0.3561,0.4154,0.3836,12.84505500,77.66385833,0.70465469,848.20000000,
1.575371,0.4965,-0.7102,-1.2790,-0.3567,0.2346,0.3207,12.84505500,77.66385833,0.70465469,848.20000000,
1.587187,0.4965,-0.7102,-1.2790,-0.3567,0.2346,0.3207,12.84505500,77.66385833,0.70465469,848.20000000,
1.589085,0.4382,-0.4081,-0.9120,-0.3567,0.2346,0.3207,12.84505500,77.66385833,0.70465469,848.20000000,
1.597294,0.4382,-0.4081,-0.9120,-0.3806,0.0446,0.2584,12.84505500,77.66385833,0.70465469,848.20000000,
1.607078,0.4382,-0.4081,-0.9120,-0.3806,0.0446,0.2584,12.84505500,77.66385833,0.70465469,848.20000000,
1.608818,0.4028,-0.1643,0.0978,-0.3806,0.0446,0.2584,12.84505500,77.66385833,0.70465469,848.20000000,
1.615690,0.4028,-0.1643,0.0978,-0.3146,-0.1680,0.2486,12.84505500,77.66385833,0.70465469,848.20000000,
1.629504,0.4028,-0.1643,0.0978,-0.3146,-0.1680,0.2486,12.84505500,77.66385833,0.70465469,848.20000000,
1.631718,0.8548,-0.4905,1.0082,-0.3146,-0.1680,0.2486,12.84505500,77.66385833,0.70465469,848.20000000,
1.636853,0.8548,-0.4905,1.0082,-0.0880,-0.2431,0.2395,12.84505500,77.66385833,0.70465469,848.20000000,
1.648252,0.8548,-0.4905,1.0082,-0.0880,-0.2431,0.2395,12.84505500,77.66385833,0.70465469,848.20000000,
1.650442,1.0823,-0.9098,1.4055,-0.0880,-0.2431,0.2395,12.84505500,77.66385833,0.70465469,848.20000000,
1.656571,1.0823,-0.9098,1.4055,0.1240,-0.1698,0.1949,12.84505500,77.66385833,0.70465469,848.20000000,
1.668458,1.0823,-0.9098,1.4055,0.1240,-0.1698,0.1949,12.84505500,77.66385833,0.70465469,848.20000000,
1.670263,0.7493,-0.6593,1.6671,0.1240,-0.1698,0.1949,12.84505500,77.66385833,0.70465469,848.20000000,
1.675078,0.7493,-0.6593,1.6671,0.2877,-0.0617,0.1985,12.84505500,77.66385833,0.70465469,848.20000000,
1.686939,0.7493,-0.6593,1.6671,0.2877,-0.0617,0.1985,12.84505500,77.66385833,0.70465469,848.20000000,
1.689312,0.3774,-0.3459,1.8479,0.2877,-0.0617,0.1985,12.84505500,77.66385833,0.70465469,848.20000000,
1.695637,0.3774,-0.3459,1.8479,0.3995,-0.0867,0.2175,12.84505500,77.66385833,0.70465469,848.20000000,
1.707661,0.3774,-0.3459,1.8479,0.3995,-0.0867,0.2175,12.84505500,77.66385833,0.70465469,848.20000000,
1.709189,0.3642,-0.5575,1.7838,0.3995,-0.0867,0.2175,12.84505500,77.66385833,0.70465469,848.20000000,
1.716790,0.3642,-0.5575,1.7838,0.4111,-0.3512,0.2071,12.84505500,77.66385833,0.70465469,848.20000000,
1.729989,0.3642,-0.5575,1.7838,0.4111,-0.3512,0.2071,12.84505500,77.66385833,0.70465469,848.20000000,
1.731406,0.5559,-0.9052,1.5260,0.4111,-0.3512,0.2071,12.84505500,77.66385833,0.70465469,848.20000000,
1.736581,0.5559,-0.9052,1.5260,0.3372,-0.4527,0.2254,12.84505500,77.66385833,0.70465469,848.20000000,
1.747663,0.5559,-0.9052,1.5260,0.3372,-0.4527,0.2254,12.84505500,77.66385833,0.70465469,848.20000000,
1.749919,0.6507,-1.0571,1.4070,0.3372,-0.4527,0.2254,12.84505500,77.66385833,0.70465469,848.20000000,
1.756344,0.6507,-1.0571,1.4070,0.1637,-0.4673,0.2816,12.84505500,77.66385833,0.70465469,848.20000000,
1.767121,0.6507,-1.0571,1.4070,0.1637,-0.4673,0.2816,12.84505500,77.66385833,0.70465469,848.20000000,
1.768711,0.7729,-0.9186,1.3038,0.1637,-0.4673,0.2816,12.84505500,77.66385833,0.70465469,848.20000000,
1.776316,0.7729,-0.9186,1.3038,-0.0098,-0.1998,0.2944,12.84505500,77.66385833,0.70465469,848.20000000,
1.787417,0.7729,-0.9186,1.3038,-0.0098,-0.1998,0.2944,12.84505500,77.66385833,0.70465469,848.20000000,
1.789122,1.1424,-0.7625,0.8108,-0.0098,-0.1998,0.2944,12.84505500,77.66385833,0.70465469,848.20000000,
1.795492,1.1424,-0.7625,0.8108,-0.2175,0.0024,0.0788,12.84505500,77.66385833,0.70465469,848.20000000,
1.807290,1.1424,-0.7625,0.8108,-0.2175,0.0024,0.0788,12.84505500,77.66385833,0.70465469,848.20000000,
1.808975,1.2187,-0.7136,0.5055,-0.2175,0.0024,0.0788,12.84505500,77.66385833,0.70465469,848.20000000,
1.816525,1.2187,-0.7136,0.5055,-0.5095,-0.2071,-0.2669,12.84505500,77.66385833,0.70465469,848.20000000,
1.829359,1.2187,-0.7136,0.5055,-0.5095,-0.2071,-0.2669,12.84505500,77.66385833,0.70465469,848.20000000,
1.831009,0.9969,-0.8928,0.2312,-0.5095,-0.2071,-0.2669,12.84505500,77.66385833,0.70465469,848.20000000,
1.836171,0.9969,-0.8928,0.2312,-0.9047,-0.7434,-0.5027,12.84505500,77.66385833,0.70465469,848.20000000,
1.847635,0.9969,-0.8928,0.2312,-0.9047,-0.7434,-0.5027,12.84505500,77.66385833,0.70465469,848.20000000,
1.849036,0.5311,-1.4655,0.4265,-0.9047,-0.7434,-0.5027,12.84505500,77.66385833,0.70465469,848.20000000,
1.857000,0.5311,-1.4655,0.4265,-1.2315,-1.1545,-0.4893,12.84505500,77.66385833,0.70465469,848.20000000,
1.867340,0.5311,-1.4655,0.4265,-1.2315,-1.1545,-0.4893,12.84505500,77.66385833,0.70465469,848.20000000,
1.868747,0.3756,-1.5355,1.6926,-1.2315,-1.1545,-0.4893,12.84505500,77.66385833,0.70465469,848.20000000,
1.876191,0.3756,-1.5355,1.6926,-1.2083,-1.0965,-0.2382,12.84505500,77.66385833,0.70465469,848.20000000,
1.886942,0.3756,-1.5355,1.6926,-1.2083,-1.0965,-0.2382,12.84505500,77.66385833,0.70465469,848.20000000,
1.888847,1.0055,-1.4503,2.3353,-1.2083,-1.0965,-0.2382,12.84505500,77.66385833,0.70465469,848.20000000,
1.896647,1.0055,-1.4503,2.3353,-0.9285,-0.6261,-0.0507,12.84505500,77.66385833,0.70465469,848.20000000,
1.907657,1.0055,-1.4503,2.3353,-0.9285,-0.6261,-0.0507,12.84505500,77.66385833,0.70465469,848.20000000,
1.909502,1.5474,-1.4171,1.7464,-0.9285,-0.6261,-0.0507,12.84505500,77.66385833,0.70465469,848.20000000,
1.915916,1.5474,-1.4171,1.7464,-0.7324,-0.0867,-0.1539,12.84505500,77.66385833,0.70465469,848.20000000,
1.928958,1.5474,-1.4171,1.7464,-0.7324,-0.0867,-0.1539,12.84505500,77.66385833,0.70465469,848.20000000,
1.930374,1.3407,-1.5610,0.1996,-0.7324,-0.0867,-0.1539,12.84505500,77.66385833,0.70465469,848.20000000,
1.937341,1.3407,-1.5610,0.1996,-0.7343,0.4691,-0.3952,12.84505500,77.66385833,0.70465469,848.20000000,
1.947519,1.3407,-1.5610,0.1996,-0.7343,0.4691,-0.3952,12.84505500,77.66385833,0.70465469,848.20000000,
1.949071,1.0349,-1.3053,0.0281,-0.7343,0.4691,-0.3952,12.84505500,77.66385833,0.70465469,848.20000000,
1.956576,1.0349,-1.3053,0.0281,-0.7636,0.6237,-0.5027,12.84505500,77.66385833,0.70465469,848.20000000,
1.967702,1.0349,-1.3053,0.0281,-0.7636,0.6237,-0.5027,12.84505500,77.66385833,0.70465469,848.20000000,
1.969235,0.2459,-0.9822,0.0873,-0.7636,0.6237,-0.5027,12.84505500,77.66385833,0.70465469,848.20000000,
1.976283,0.2459,-0.9822,0.0873,-0.6915,0.7257,-0.3531,12.84505500,77.66385833,0.70465469,848.20000000,
1.986876,0.2459,-0.9822,0.0873,-0.6915,0.7257,-0.3531,12.84505500,77.66385833,0.70465469,848.20000000,
1.988794,0.4670,-0.9052,-0.1586,-0.6915,0.7257,-0.3531,12.84505500,77.66385833,0.70465469,848.20000000,
1.998356,0.4670,-0.9052,-0.1586,-0.5840,0.6335,-0.1075,12.84505500,77.66385833,0.70465469,848.20000000,
2.006627,0.4670,-0.9052,-0.1586,-0.5840,0.6335,-0.1075,12.84505500,77.66385833,0.70465469,848.20000000,
2.008321,0.9950,-1.0125,-0.1104,-0.5840,0.6335,-0.1075,12.84505500,77.66385833,0.70465469,848.20000000,
2.016822,0.9950,-1.0125,-0.1104,-0.4612,0.4423,0.0849,12.84505500,77.66385833,0.70465469,848.20000000,
2.028433,0.9950,-1.0125,-0.1104,-0.4612,0.4423,0.0849,12.84505500,77.66385833,0.70465469,848.20000000,
2.030072,1.4572,-0.9918,0.5218,-0.4612,0.4423,0.0849,12.84505500,77.66385833,0.70465469,848.20000000,
2.036270,1.4572,-0.9918,0.5218,-0.2547,0.1423,0.1393,12.84505500,77.66385833,0.70465469,848.20000000,
2.047727,1.4572,-0.9918,0.5218,-0.2547,0.1423,0.1393,12.84505500,77.66385833,0.70465469,848.20000000,
2.049409,0.9987,0.3175,0.9708,-0.2547,0.1423,0.1393,12.84505500,77.66385833,0.70465469,848.20000000,
2.056494,0.9987,0.3175,0.9708,0.0825,-0.3586,0.1991,12.84505500,77.66385833,0.70465469,848.20000000,
2.067439,0.9987,0.3175,0.9708,0.0825,-0.3586,0.1991,12.84505500,77.66385833,0.70465469,848.20000000,
2.069265,0.8436,0.0131,0.1737,0.0825,-0.3586,0.1991,12.84505500,77.66385833,0.70465469,848.20000000,
2.075954,0.8436,0.0131,0.1737,0.3775,-0.5241,0.1784,12.84505500,77.66385833,0.70465469,848.20000000,
2.086980,0.8436,0.0131,0.1737,0.3775,-0.5241,0.1784,12.84505500,77.66385833,0.70465469,848.20000000,
2.088593,0.2402,-0.6939,-1.3810,0.3775,-0.5241,0.1784,12.84505500,77.66385833,0.70465469,848.20000000,
2.097605,0.2402,-0.6939,-1.3810,0.4979,-0.2486,0.1655,12.84505500,77.66385833,0.70465469,848.20000000,
2.107130,0.2402,-0.6939,-1.3810,0.4979,-0.2486,0.1655,12.84505500,77.66385833,0.70465469,848.20000000,
2.108959,0.2956,-1.8817,-2.1194,0.4979,-0.2486,0.1655,12.84505500,77.66385833,0.70465469,848.20000000,
2.116424,0.2956,-1.8817,-2.1194,0.4710,0.1246,0.1411,12.84505500,77.66385833,0.70465469,848.20000000,
2.128912,0.2956,-1.8817,-2.1194,0.4710,0.1246,0.1411,12.84505500,77.66385833,0.70465469,848.20000000,
2.130633,0.4266,-2.4664,-1.4696,0.4710,0.1246,0.1411,12.84505500,77.66385833,0.70465469,848.20000000,
2.137397,0.4266,-2.4664,-1.4696,0.4331,0.2761,0.0629,12.84505500,77.66385833,0.70465469,848.20000000,
2.147656,0.4266,-2.4664,-1.4696,0.4331,0.2761,0.0629,12.84505500,77.66385833,0.70465469,848.20000000,
2.150401,0.6782,-1.3475,-0.5145,0.4331,0.2761,0.0629,12.84505500,77.66385833,0.70465469,848.20000000,
2.155532,0.6782,-1.3475,-0.5145,0.5278,0.2059,0.0018,12.84505500,77.66385833,0.70465469,848.20000000,
2.167413,0.6782,-1.3475,-0.5145,0.5278,0.2059,0.0018,12.84505500,77.66385833,0.70465469,848.20000000,
2.169804,0.3457,0.2520,-0.0625,0.5278,0.2059,0.0018,12.84505500,77.66385833,0.70465469,848.20000000,
2.181885,0.3457,0.2520,-0.0625,0.7856,0.4636,0.0110,12.84505500,77.66385833,0.70465469,848.20000000,
2.187025,0.3457,0.2520,-0.0625,0.7856,0.4636,0.0110,12.84505500,77.66385833,0.70465469,848.20000000,
2.188273,0.8523,0.4943,0.5125,0.7856,0.4636,0.0110,12.84505500,77.66385833,0.70465469,848.20000000,
2.197496,0.8523,0.4943,0.5125,0.8772,0.2468,-0.0495,12.84505500,77.66385833,0.70465469,848.20000000,
2.207347,0.8523,0.4943,0.5125,0.8772,0.2468,-0.0495,12.84505500,77.66385833,0.70465469,848.20000000,
2.208750,0.8755,0.3116,0.0057,0.8772,0.2468,-0.0495,12.84505500,77.66385833,0.70465469,848.20000000,
2.216574,0.8755,0.3116,0.0057,0.7972,-0.0929,-0.1698,12.84505500,77.66385833,0.70465469,848.20000000,
2.228223,0.8755,0.3116,0.0057,0.7972,-0.0929,-0.1698,12.84505500,77.66385833,0.70465469,848.20000000,
2.229651,0.5120,0.1869,-0.6320,0.7972,-0.0929,-0.1698,12.84505500,77.66385833,0.70465469,848.20000000,
2.236589,0.5120,0.1869,-0.6320,0.7220,-0.0733,-0.2138,12.84505500,77.66385833,0.70465469,848.20000000,
2.247507,0.5120,0.1869,-0.6320,0.7220,-0.0733,-0.2138,12.84505500,77.66385833,0.70465469,848.20000000,
2.250322,0.4824,0.0399,-0.8385,0.7220,-0.0733,-0.2138,12.84505500,77.66385833,0.70465469,848.20000000,
2.256019,0.4824,0.0399,-0.8385,0.5479,-0.0134,-0.2089,12.84505500,77.66385833,0.70465469,848.20000000,
2.267015,0.4824,0.0399,-0.8385,0.5479,-0.0134,-0.2089,12.84505500,77.66385833,0.70465469,848.20000000,
2.268761,0.2107,0.1236,-0.8139,0.5479,-0.0134,-0.2089,12.84505500,77.66385833,0.70465469,848.20000000,
2.275703,0.2107,0.1236,-0.8139,0.3091,0.0312,-0.1338,12.84505500,77.66385833,0.70465469,848.20000000,
2.287053,0.2107,0.1236,-0.8139,0.3091,0.0312,-0.1338,12.84505500,77.66385833,0.70465469,848.20000000,
2.288901,0.0489,0.3875,-0.6701,0.3091,0.0312,-0.1338,12.84505500,77.66385833,0.70465469,848.20000000,
2.296174,0.0489,0.3875,-0.6701,0.0996,0.1155,0.0318,12.84505500,77.66385833,0.70465469,848.20000000,
2.307515,0.0489,0.3875,-0.6701,0.0996,0.1155,0.0318,12.84505500,77.66385833,0.70465469,848.20000000,
2.309237,0.6163,0.5562,0.3958,0.0996,0.1155,0.0318,12.84505500,77.66385833,0.70465469,848.20000000,
2.317108,0.6163,0.5562,0.3958,0.0483,0.0666,0.1246,12.84505500,77.66385833,0.70465469,848.20000000,
2.329801,0.6163,0.5562,0.3958,0.0483,0.0666,0.1246,12.84505500,77.66385833,0.70465469,848.20000000,
2.331075,0.6654,0.7078,1.2390,0.0483,0.0666,0.1246,12.84505500,77.66385833,0.70465469,848.20000000,
2.336502,0.6654,0.7078,1.2390,0.2395,0.0843,0.1625,12.84505500,77.66385833,0.70465469,848.20000000,
2.346668,0.6654,0.7078,1.2390,0.2395,0.0843,0.1625,12.84505500,77.66385833,0.70465469,848.20000000,
2.348214,0.6458,0.6822,1.4462,0.2395,0.0843,0.1625,12.84505500,77.66385833,0.70465469,848.20000000,
2.355556,0.6458,0.6822,1.4462,0.5223,0.1338,0.1545,12.84505500,77.66385833,0.70465469,848.20000000,
2.367030,0.6458,0.6822,1.4462,0.5223,0.1338,0.1545,12.84505500,77.66385833,0.70465469,848.20000000,
2.368564,0.5973,0.3740,1.2857,0.5223,0.1338,0.1545,12.84505500,77.66385833,0.70465469,848.20000000,
2.379707,0.5973,0.3740,1.2857,0.6634,-0.0690,0.1423,12.84505500,77.66385833,0.70465469,848.20000000,
2.387578,0.5973,0.3740,1.2857,0.6634,-0.0690,0.1423,12.84505500,77.66385833,0.70465469,848.20000000,
2.388927,0.5843,0.2100,1.3885,0.6634,-0.0690,0.1423,12.84505500,77.66385833,0.70465469,848.20000000,
2.397755,0.5843,0.2100,1.3885,0.6548,-0.2981,0.1796,12.84505500,77.66385833,0.70465469,848.20000000,
2.407298,0.5843,0.2100,1.3885,0.6548,-0.2981,0.1796,12.84505500,77.66385833,0.70465469,848.20000000,
2.408659,0.6724,0.0475,1.5832,0.6548,-0.2981,0.1796,12.84505500,77.66385833,0.70465469,848.20000000,
2.417505,0.6724,0.0475,1.5832,0.5736,-0.3531,0.2395,12.84505500,77.66385833,0.70465469,848.20000000,
2.428058,0.6724,0.0475,1.5832,0.5736,-0.3531,0.2395,12.84505500,77.66385833,0.70465469,848.20000000,
2.429318,0.6678,-0.1669,1.7227,0.5736,-0.3531,0.2395,12.84505500,77.66385833,0.70465469,848.20000000,
2.436073,0.6678,-0.1669,1.7227,0.5467,-0.1368,0.2621,12.84505500,77.66385833,0.70465469,848.20000000,
2.447541,0.6678,-0.1669,1.7227,0.5467,-0.1368,0.2621,12.84505500,77.66385833,0.70465469,848.20000000,
2.449084,0.4010,-0.4547,1.5293,0.5467,-0.1368,0.2621,12.84505500,77.66385833,0.70465469,848.20000000,
2.456147,0.4010,-0.4547,1.5293,0.5541,0.0666,0.2682,12.84505500,77.66385833,0.70465469,847.40000000,
2.467723,0.4010,-0.4547,1.5293,0.5541,0.0666,0.2682,12.84507333,77.66386167,0.94194168,847.40000000,
2.469242,0.3560,-0.6622,1.3109,0.5541,0.0666,0.2682,12.84507333,77.66386167,0.94194168,847.40000000,
2.475574,0.3560,-0.6622,1.3109,0.5003,0.0092,0.2242,12.84507333,77.66386167,0.94194168,847.40000000,
2.486522,0.3560,-0.6622,1.3109,0.5003,0.0092,0.2242,12.84507333,77.66386167,0.94194168,847.40000000,
2.488792,0.2685,-0.7200,1.3126,0.5003,0.0092,0.2242,12.84507333,77.66386167,0.94194168,847.40000000,
2.496620,0.2685,-0.7200,1.3126,0.4074,0.0440,0.1313,12.84507333,77.66386167,0.94194168,847.40000000,
2.507365,0.2685,-0.7200,1.3126,0.4074,0.0440,0.1313,12.84507333,77.66386167,0.94194168,847.40000000,
2.508880,0.1016,-0.8765,1.0851,0.4074,0.0440,0.1313,12.84507333,77.66386167,0.94194168,847.40000000,
2.516806,0.1016,-0.8765,1.0851,0.2718,0.1729,0.0299,12.84507333,77.66386167,0.94194168,847.40000000,
2.527754,0.1016,-0.8765,1.0851,0.2718,0.1729,0.0299,12.84507333,77.66386167,0.94194168,847.40000000,
2.529666,-0.1197,-1.2177,0.6736,0.2718,0.1729,0.0299,12.84507333,77.66386167,0.94194168,847.40000000,
2.535811,-0.1197,-1.2177,0.6736,0.1130,0.1820,-0.0055,12.84507333,77.66386167,0.94194168,847.40000000,
2.547813,-0.1197,-1.2177,0.6736,0.1130,0.1820,-0.0055,12.84507333,77.66386167,0.94194168,847.40000000,
2.549962,-0.1511,-1.4488,0.3829,0.1130,0.1820,-0.0055,12.84507333,77.66386167,0.94194168,847.40000000,
2.556043,-0.1511,-1.4488,0.3829,-0.0049,0.0965,0.0092,12.84507333,77.66386167,0.94194168,847.40000000,
2.566995,-0.1511,-1.4488,0.3829,-0.0049,0.0965,0.0092,12.84507333,77.66386167,0.94194168,847.40000000,
2.568808,-0.3137,-1.3983,0.5068,-0.0049,0.0965,0.0092,12.84507333,77.66386167,0.94194168,847.40000000,
2.578166,-0.3137,-1.3983,0.5068,-0.0458,-0.0922,0.1038,12.84507333,77.66386167,0.94194168,847.40000000,
2.586802,-0.3137,-1.3983,0.5068,-0.0458,-0.0922,0.1038,12.84507333,77.66386167,0.94194168,847.40000000,
2.588562,-0.5465,-1.1683,0.6981,-0.0458,-0.0922,0.1038,12.84507333,77.66386167,0.94194168,847.40000000,
2.596127,-0.5465,-1.1683,0.6981,0.0037,-0.0556,0.2755,12.84507333,77.66386167,0.94194168,847.40000000,
2.607475,-0.5465,-1.1683,0.6981,0.0037,-0.0556,0.2755,12.84507333,77.66386167,0.94194168,847.40000000,
2.609031,-0.8693,-1.0072,0.7327,0.0037,-0.0556,0.2755,12.84507333,77.66386167,0.94194168,847.40000000,
2.616966,-0.8693,-1.0072,0.7327,0.1448,0.2346,0.4368,12.84507333,77.66386167,0.94194168,847.40000000,
2.627516,-0.8693,-1.0072,0.7327,0.1448,0.2346,0.4368,12.84507333,77.66386167,0.94194168,847.40000000,
2.629107,-0.7010,-0.9092,0.5054,0.1448,0.2346,0.4368,12.84507333,77.66386167,0.94194168,847.40000000,
2.635699,-0.7010,-0.9092,0.5054,0.3103,0.4178,0.5058,12.84507333,77.66386167,0.94194168,847.40000000,
2.647257,-0.7010,-0.9092,0.5054,0.3103,0.4178,0.5058,12.84507333,77.66386167,0.94194168,847.40000000,
2.649053,-0.1610,-0.9580,0.2967,0.3103,0.4178,0.5058,12.84507333,77.66386167,0.94194168,847.40000000,
2.657032,-0.1610,-0.9580,0.2967,0.4734,0.3109,0.5095,12.84507333,77.66386167,0.94194168,847.40000000,
2.667124,-0.1610,-0.9580,0.2967,0.4734,0.3109,0.5095,12.84507333,77.66386167,0.94194168,847.40000000,
2.668706,0.4392,-1.1362,0.1508,0.4734,0.3109,0.5095,12.84507333,77.66386167,0.94194168,847.40000000,
2.681415,0.4392,-1.1362,0.1508,0.5467,0.1069,0.4209,12.84507333,77.66386167,0.94194168,847.40000000,
2.687645,0.4392,-1.1362,0.1508,0.5467,0.1069,0.4209,12.84507333,77.66386167,0.94194168,847.40000000,
2.689231,0.8629,-1.0597,0.0109,0.5467,0.1069,0.4209,12.84507333,77.66386167,0.94194168,847.40000000,
2.696419,0.8629,-1.0597,0.0109,0.5205,-0.0727,0.2291,12.84507333,77.66386167,0.94194168,847.40000000,
2.708258,0.8629,-1.0597,0.0109,0.5205,-0.0727,0.2291,12.84507333,77.66386167,0.94194168,847.40000000,
2.710379,0.8793,-0.8623,-0.4135,0.5205,-0.0727,0.2291,12.84507333,77.66386167,0.94194168,847.40000000,
2.716488,0.8793,-0.8623,-0.4135,0.3910,-0.0904,-0.0140,12.84507333,77.66386167,0.94194168,847.40000000,
2.728652,0.8793,-0.8623,-0.4135,0.3910,-0.0904,-0.0140,12.84507333,77.66386167,0.94194168,847.40000000,
2.730344,0.7271,-1.0679,-0.8149,0.3910,-0.0904,-0.0140,12.84507333,77.66386167,0.94194168,847.40000000,
2.736806,0.7271,-1.0679,-0.8149,0.1472,0.0086,-0.2419,12.84507333,77.66386167,0.94194168,847.40000000,
2.747569,0.7271,-1.0679,-0.8149,0.1472,0.0086,-0.2419,12.84507333,77.66386167,0.94194168,847.40000000,
2.749455,0.2044,-1.4993,-1.2833,0.1472,0.0086,-0.2419,12.84507333,77.66386167,0.94194168,847.40000000,
2.755654,0.2044,-1.4993,-1.2833,-0.1228,0.2847,-0.2773,12.84507333,77.66386167,0.94194168,847.40000000,
2.767590,0.2044,-1.4993,-1.2833,-0.1228,0.2847,-0.2773,12.84507333,77.66386167,0.94194168,847.40000000,
2.769277,-0.3304,-1.5164,-1.3599,-0.1228,0.2847,-0.2773,12.84507333,77.66386167,0.94194168,847.40000000,
2.775108,-0.3304,-1.5164,-1.3599,-0.2688,0.4099,-0.0910,12.84507333,77.66386167,0.94194168,847.40000000,
2.787895,-0.3304,-1.5164,-1.3599,-0.2688,0.4099,-0.0910,12.84507333,77.66386167,0.94194168,847.40000000,
2.789592,-0.3495,-1.2742,-1.3720,-0.2688,0.4099,-0.0910,12.84507333,77.66386167,0.94194168,847.40000000,
2.796276,-0.3495,-1.2742,-1.3720,-0.2987,0.3769,0.0977,12.84507333,77.66386167,0.94194168,847.40000000,
2.807954,-0.3495,-1.2742,-1.3720,-0.2987,0.3769,0.0977,12.84507333,77.66386167,0.94194168,847.40000000,
2.809773,0.0106,-1.1535,-1.4264,-0.2987,0.3769,0.0977,12.84507333,77.66386167,0.94194168,847.40000000,
2.815815,0.0106,-1.1535,-1.4264,-0.2724,0.1790,0.1326,12.84507333,77.66386167,0.94194168,847.40000000,
2.828256,0.0106,-1.1535,-1.4264,-0.2724,0.1790,0.1326,12.84507333,77.66386167,0.94194168,847.40000000,
2.830060,0.2819,-1.0405,-1.6444,-0.2724,0.1790,0.1326,12.84507333,77.66386167,0.94194168,847.40000000,
2.835553,0.2819,-1.0405,-1.6444,-0.2315,-0.0953,0.0843,12.84507333,77.66386167,0.94194168,847.40000000,
2.847377,0.2819,-1.0405,-1.6444,-0.2315,-0.0953,0.0843,12.84507333,77.66386167,0.94194168,847.40000000,
2.849016,0.2255,-0.9918,-1.7179,-0.2315,-0.0953,0.0843,12.84507333,77.66386167,0.94194168,847.40000000,
2.855558,0.2255,-0.9918,-1.7179,-0.2089,-0.2877,0.0593,12.84507333,77.66386167,0.94194168,847.40000000,
2.868216,0.2255,-0.9918,-1.7179,-0.2089,-0.2877,0.0593,12.84507333,77.66386167,0.94194168,847.40000000,
2.869940,0.1013,-1.0832,-1.6417,-0.2089,-0.2877,0.0593,12.84507333,77.66386167,0.94194168,847.40000000,
2.875806,0.1013,-1.0832,-1.6417,-0.2114,-0.2902,0.1222,12.84507333,77.66386167,0.94194168,847.40000000,
2.888366,0.1013,-1.0832,-1.6417,-0.2114,-0.2902,0.1222,12.84507333,77.66386167,0.94194168,847.40000000,
2.890141,0.2387,-1.1558,-1.4288,-0.2114,-0.2902,0.1222,12.84507333,77.66386167,0.94194168,847.40000000,
2.896321,0.2387,-1.1558,-1.4288,-0.2266,-0.1875,0.1680,12.84507333,77.66386167,0.94194168,847.40000000,
2.907452,0.2387,-1.1558,-1.4288,-0.2266,-0.1875,0.1680,12.84507333,77.66386167,0.94194168,847.40000000,
2.909240,0.2535,-1.0463,-1.0307,-0.2266,-0.1875,0.1680,12.84507333,77.66386167,0.94194168,847.40000000,
2.916611,0.2535,-1.0463,-1.0307,-0.1723,-0.1527,0.1717,12.84507333,77.66386167,0.94194168,847.40000000,
2.927730,0.2535,-1.0463,-1.0307,-0.1723,-0.1527,0.1717,12.84507333,77.66386167,0.94194168,847.40000000,
2.929927,0.2315,-0.8103,-0.5903,-0.1723,-0.1527,0.1717,12.84507333,77.66386167,0.94194168,847.40000000,
2.935582,0.2315,-0.8103,-0.5903,-0.0525,-0.1460,0.1307,12.84507333,77.66386167,0.94194168,847.40000000,
2.947330,0.2315,-0.8103,-0.5903,-0.0525,-0.1460,0.1307,12.84507333,77.66386167,0.94194168,847.40000000,
2.948828,0.1008,-0.6272,-0.5998,-0.0525,-0.1460,0.1307,12.84507333,77.66386167,0.94194168,847.40000000,
2.955549,0.1008,-0.6272,-0.5998,0.0360,-0.1875,0.1069,12.84507333,77.66386167,0.94194168,847.40000000,
2.967076,0.1008,-0.6272,-0.5998,0.0360,-0.1875,0.1069,12.84507333,77.66386167,0.94194168,847.40000000,
2.968622,0.0092,-0.4339,-0.8893,0.0360,-0.1875,0.1069,12.84507333,77.66386167,0.94194168,847.40000000,
2.978249,0.0092,-0.4339,-0.8893,0.0354,-0.2602,0.1301,12.84507333,77.66386167,0.94194168,847.40000000,
2.987281,0.0092,-0.4339,-0.8893,0.0354,-0.2602,0.1301,12.84507333,77.66386167,0.94194168,847.40000000,
2.988745,0.0917,-0.1880,-0.7101,0.0354,-0.2602,0.1301,12.84507333,77.66386167,0.94194168,847.40000000,
2.996200,0.0917,-0.1880,-0.7101,-0.0220,-0.3433,0.1778,12.84507333,77.66386167,0.94194168,847.40000000,
3.006671,0.0917,-0.1880,-0.7101,-0.0220,-0.3433,0.1778,12.84507333,77.66386167,0.94194168,847.40000000,
3.008116,-0.0271,0.0237,-0.0544,-0.0220,-0.3433,0.1778,12.84507333,77.66386167,0.94194168,847.40000000,
3.016498,-0.0271,0.0237,-0.0544,-0.0959,-0.3103,0.2175,12.84507333,77.66386167,0.94194168,847.40000000,
3.027750,-0.0271,0.0237,-0.0544,-0.0959,-0.3103,0.2175,12.84507333,77.66386167,0.94194168,847.40000000,
3.029512,-0.0709,0.1364,0.9340,-0.0959,-0.3103,0.2175,12.84507333,77.66386167,0.94194168,847.40000000,
3.035893,-0.0709,0.1364,0.9340,-0.0092,-0.0421,0.2877,12.84507333,77.66386167,0.94194168,847.40000000,
3.047019,-0.0709,0.1364,0.9340,-0.0092,-0.0421,0.2877,12.84507333,77.66386167,0.94194168,847.40000000,
3.048575,0.1203,0.1692,1.2584,-0.0092,-0.0421,0.2877,12.84507333,77.66386167,0.94194168,847.40000000,
3.056163,0.1203,0.1692,1.2584,0.1820,0.1778,0.3109,12.84507333,77.66386167,0.94194168,847.40000000,
3.067541,0.1203,0.1692,1.2584,0.1820,0.1778,0.3109,12.84507333,77.66386167,0.94194168,847.40000000,
3.068827,0.6007,0.0732,1.3461,0.1820,0.1778,0.3109,12.84507333,77.66386167,0.94194168,847.40000000,
3.077992,0.6007,0.0732,1.3461,0.2651,-0.0764,0.2199,12.84507333,77.66386167,0.94194168,847.40000000,
3.087561,0.6007,0.0732,1.3461,0.2651,-0.0764,0.2199,12.84507333,77.66386167,0.94194168,847.40000000,
3.089174,0.8828,0.0744,1.4712,0.2651,-0.0764,0.2199,12.84507333,77.66386167,0.94194168,847.40000000,
3.096329,0.8828,0.0744,1.4712,0.1698,-0.4997,0.0837,12.84507333,77.66386167,0.94194168,847.40000000,
3.107325,0.8828,0.0744,1.4712,0.1698,-0.4997,0.0837,12.84507333,77.66386167,0.94194168,847.40000000,
3.108902,0.9497,-0.0726,2.2934,0.1698,-0.4997,0.0837,12.84507333,77.66386167,0.94194168,847.40000000,
3.116162,0.9497,-0.0726,2.2934,0.0654,-0.6878,0.0134,12.84507333,77.66386167,0.94194168,847.40000000,
3.128466,0.9497,-0.0726,2.2934,0.0654,-0.6878,0.0134,12.84507333,77.66386167,0.94194168,847.40000000,
3.130122,0.7729,-0.4607,2.6623,0.0654,-0.6878,0.0134,12.84507333,77.66386167,0.94194168,847.40000000,
3.135932,0.7729,-0.4607,2.6623,0.1106,-0.3231,0.0024,12.84507333,77.66386167,0.94194168,847.40000000,
3.147121,0.7729,-0.4607,2.6623,0.1106,-0.3231,0.0024,12.84507333,77.66386167,0.94194168,847.40000000,
3.148840,0.2289,-0.6633,1.9484,0.1106,-0.3231,0.0024,12.84507333,77.66386167,0.94194168,847.40000000,
3.156567,0.2289,-0.6633,1.9484,0.1943,0.1619,0.0116,12.84507333,77.66386167,0.94194168,847.40000000,
3.167554,0.2289,-0.6633,1.9484,0.1943,0.1619,0.0116,12.84507333,77.66386167,0.94194168,847.40000000,
3.168916,-0.0889,-0.5270,0.7154,0.1943,0.1619,0.0116,12.84507333,77.66386167,0.94194168,847.40000000,
3.180907,-0.0889,-0.5270,0.7154,0.0580,0.2969,-0.0214,12.84507333,77.66386167,0.94194168,847.40000000,
3.187659,-0.0889,-0.5270,0.7154,0.0580,0.2969,-0.0214,12.84507333,77.66386167,0.94194168,847.40000000,
3.189254,0.2185,-0.3975,-0.0258,0.0580,0.2969,-0.0214,12.84507333,77.66386167,0.94194168,847.40000000,
3.197685,0.2185,-0.3975,-0.0258,-0.3824,0.0397,-0.1833,12.84507333,77.66386167,0.94194168,847.40000000,
3.207045,0.2185,-0.3975,-0.0258,-0.3824,0.0397,-0.1833,12.84507333,77.66386167,0.94194168,847.40000000,
3.208748,0.4813,-0.4967,0.0258,-0.3824,0.0397,-0.1833,12.84507333,77.66386167,0.94194168,847.40000000,
3.216638,0.4813,-0.4967,0.0258,-0.9664,-0.2602,-0.3244,12.84507333,77.66386167,0.94194168,847.40000000,
3.227795,0.4813,-0.4967,0.0258,-0.9664,-0.2602,-0.3244,12.84507333,77.66386167,0.94194168,847.40000000,
3.229378,0.4914,-0.7685,1.5141,-0.9664,-0.2602,-0.3244,12.84507333,77.66386167,0.94194168,847.40000000,
3.235669,0.4914,-0.7685,1.5141,-1.2223,-0.2089,-0.2309,12.84507333,77.66386167,0.94194168,847.40000000,
3.247405,0.4914,-0.7685,1.5141,-1.2223,-0.2089,-0.2309,12.84507333,77.66386167,0.94194168,847.40000000,
3.249417,0.8264,-1.2663,2.3873,-1.2223,-0.2089,-0.2309,12.84507333,77.66386167,0.94194168,847.40000000,
3.256457,0.8264,-1.2663,2.3873,-0.9829,0.0983,-0.0825,12.84507333,77.66386167,0.94194168,847.40000000,
3.267816,0.8264,-1.2663,2.3873,-0.9829,0.0983,-0.0825,12.84507333,77.66386167,0.94194168,847.40000000,
3.269706,1.0312,-1.5085,2.2174,-0.9829,0.0983,-0.0825,12.84507333,77.66386167,0.94194168,847.40000000,
3.278417,1.0312,-1.5085,2.2174,-0.5058,0.2902,-0.0733,12.84507333,77.66386167,0.94194168,847.40000000,
3.287414,1.0312,-1.5085,2.2174,-0.5058,0.2902,-0.0733,12.84507333,77.66386167,0.94194168,847.40000000,
3.288732,0.8720,-1.3932,1.3579,-0.5058,0.2902,-0.0733,12.84507333,77.66386167,0.94194168,847.40000000,
3.296883,0.8720,-1.3932,1.3579,-0.0586,0.2083,-0.2077,12.84507333,77.66386167,0.94194168,847.40000000,
3.306618,0.8720,-1.3932,1.3579,-0.0586,0.2083,-0.2077,12.84507333,77.66386167,0.94194168,847.40000000,
3.307970,0.4737,-1.1445,0.5129,-0.0586,0.2083,-0.2077,12.84507333,77.66386167,0.94194168,847.40000000,
3.315997,0.4737,-1.1445,0.5129,0.1228,-0.0104,-0.2822,12.84507333,77.66386167,0.94194168,847.40000000,
3.327961,0.4737,-1.1445,0.5129,0.1228,-0.0104,-0.2822,12.84507333,77.66386167,0.94194168,847.40000000,
3.329757,0.2664,-0.8886,0.0695,0.1228,-0.0104,-0.2822,12.84507333,77.66386167,0.94194168,847.40000000,
3.336289,0.2664,-0.8886,0.0695,0.1576,-0.0983,-0.2046,12.84507333,77.66386167,0.94194168,847.40000000,
3.348496,0.2664,-0.8886,0.0695,0.1576,-0.0983,-0.2046,12.84507333,77.66386167,0.94194168,847.40000000,
3.350126,0.2871,-0.9656,-0.3789,0.1576,-0.0983,-0.2046,12.84507333,77.66386167,0.94194168,847.40000000,
3.355607,0.2871,-0.9656,-0.3789,0.1350,0.0446,-0.0861,12.84507333,77.66386167,0.94194168,847.40000000,
3.367786,0.2871,-0.9656,-0.3789,0.1350,0.0446,-0.0861,12.84507333,77.66386167,0.94194168,847.40000000,
3.369680,0.4983,-0.9039,-0.6140,0.1350,0.0446,-0.0861,12.84507333,77.66386167,0.94194168,847.40000000,
3.378241,0.4983,-0.9039,-0.6140,0.0831,0.1216,-0.0220,12.84507333,77.66386167,0.94194168,847.40000000,
3.387312,0.4983,-0.9039,-0.6140,0.0831,0.1216,-0.0220,12.84507333,77.66386167,0.94194168,847.40000000,
3.388921,0.8140,-0.5784,-0.6275,0.0831,0.1216,-0.0220,12.84507333,77.66386167,0.94194168,847.40000000,
3.397639,0.8140,-0.5784,-0.6275,0.0269,0.0599,-0.0391,12.84507333,77.66386167,0.94194168,847.40000000,
3.407251,0.8140,-0.5784,-0.6275,0.0269,0.0599,-0.0391,12.84507333,77.66386167,0.94194168,847.40000000,
3.409486,1.0344,-0.1917,-0.5350,0.0269,0.0599,-0.0391,12.84507333,77.66386167,0.94194168,847.40000000,
3.417222,1.0344,-0.1917,-0.5350,-0.0043,0.0098,-0.1503,12.84507333,77.66386167,0.94194168,847.40000000,
3.428405,1.0344,-0.1917,-0.5350,-0.0043,0.0098,-0.1503,12.84507333,77.66386167,0.94194168,847.40000000,
3.430215,0.9700,0.0142,-0.4447,-0.0043,0.0098,-0.1503,12.84507333,77.66386167,0.94194168,847.40000000,
3.435403,0.9700,0.0142,-0.4447,0.0116,0.0672,-0.2584,12.84507333,77.66386167,0.94194168,847.40000000,
3.446596,0.9700,0.0142,-0.4447,0.0116,0.0672,-0.2584,12.84507333,77.66386167,0.94194168,847.40000000,
3.447499,0.4961,-0.0668,-0.7448,0.0116,0.0672,-0.2584,12.84507333,77.66386167,0.94194168,847.40000000,
3.459085,0.4961,-0.0668,-0.7448,0.0654,0.2236,-0.2517,12.84507333,77.66386167,0.94194168,847.40000000,
3.468321,0.4961,-0.0668,-0.7448,0.0654,0.2236,-0.2517,12.84507333,77.66386167,0.94194168,847.10000000,
3.469758,0.2341,-0.0321,-0.9570,0.0654,0.2236,-0.2517,12.84508333,77.66386167,0.99804640,847.10000000,
3.477413,0.2341,-0.0321,-0.9570,0.0965,0.2627,-0.1802,12.84508333,77.66386167,0.99804640,847.10000000,
3.486671,0.2341,-0.0321,-0.9570,0.0965,0.2627,-0.1802,12.84508333,77.66386167,0.99804640,847.10000000,
3.488217,0.2825,0.1871,-1.1861,0.0965,0.2627,-0.1802,12.84508333,77.66386167,0.99804640,847.10000000,
3.496445,0.2825,0.1871,-1.1861,0.1057,0.2676,-0.1393,12.84508333,77.66386167,0.99804640,847.10000000,
3.506764,0.2825,0.1871,-1.1861,0.1057,0.2676,-0.1393,12.84508333,77.66386167,0.99804640,847.10000000,
3.508331,0.3936,0.4041,-1.3665,0.1057,0.2676,-0.1393,12.84508333,77.66386167,0.99804640,847.10000000,
3.516118,0.3936,0.4041,-1.3665,0.0538,0.1417,-0.1429,12.84508333,77.66386167,0.99804640,847.10000000,
3.527955,0.3936,0.4041,-1.3665,0.0538,0.1417,-0.1429,12.84508333,77.66386167,0.99804640,847.10000000,
3.529466,0.4264,0.6870,-1.1634,0.0538,0.1417,-0.1429,12.84508333,77.66386167,0.99804640,847.10000000,
3.537231,0.4264,0.6870,-1.1634,0.0220,0.0043,-0.1460,12.84508333,77.66386167,0.99804640,847.10000000,
3.548281,0.4264,0.6870,-1.1634,0.0220,0.0043,-0.1460,12.84508333,77.66386167,0.99804640,847.10000000,
3.550497,0.5744,0.5558,-1.1214,0.0220,0.0043,-0.1460,12.84508333,77.66386167,0.99804640,847.10000000,
3.556417,0.5744,0.5558,-1.1214,0.0305,-0.0446,-0.1845,12.84508333,77.66386167,0.99804640,847.10000000,
3.568974,0.5744,0.5558,-1.1214,0.0305,-0.0446,-0.1845,12.84508333,77.66386167,0.99804640,847.10000000,
3.570684,0.5189,0.4471,-1.0792,0.0305,-0.0446,-0.1845,12.84508333,77.66386167,0.99804640,847.10000000,
3.577875,0.5189,0.4471,-1.0792,0.0501,-0.0275,-0.2352,12.84508333,77.66386167,0.99804640,847.10000000,
3.587527,0.5189,0.4471,-1.0792,0.0501,-0.0275,-0.2352,12.84508333,77.66386167,0.99804640,847.10000000,
3.589066,0.2459,0.5664,-0.8706,0.0501,-0.0275,-0.2352,12.84508333,77.66386167,0.99804640,847.10000000,
3.595352,0.2459,0.5664,-0.8706,0.0568,-0.0428,-0.2181,12.84508333,77.66386167,0.99804640,847.10000000,
3.606968,0.2459,0.5664,-0.8706,0.0568,-0.0428,-0.2181,12.84508333,77.66386167,0.99804640,847.10000000,
3.608895,0.2864,0.4558,-0.6802,0.0568,-0.0428,-0.2181,12.84508333,77.66386167,0.99804640,847.10000000,
3.615974,0.2864,0.4558,-0.6802,0.0770,-0.0305,-0.1894,12.84508333,77.66386167,0.99804640,847.10000000,
3.627483,0.2864,0.4558,-0.6802,0.0770,-0.0305,-0.1894,12.84508333,77.66386167,0.99804640,847.10000000,
3.628962,0.3278,0.3001,-0.5694,0.0770,-0.0305,-0.1894,12.84508333,77.66386167,0.99804640,847.10000000,
3.637053,0.3278,0.3001,-0.5694,0.0904,-0.0464,-0.1649,12.84508333,77.66386167,0.99804640,847.10000000,
3.647627,0.3278,0.3001,-0.5694,0.0904,-0.0464,-0.1649,12.84508333,77.66386167,0.99804640,847.10000000,
3.649477,0.2678,0.3991,-0.2720,0.0904,-0.0464,-0.1649,12.84508333,77.66386167,0.99804640,847.10000000,
3.656683,0.2678,0.3991,-0.2720,0.1234,-0.0562,-0.1167,12.84508333,77.66386167,0.99804640,847.10000000,
3.667589,0.2678,0.3991,-0.2720,0.1234,-0.0562,-0.1167,12.84508333,77.66386167,0.99804640,847.10000000,
3.669771,0.1087,0.4777,0.0123,0.1234,-0.0562,-0.1167,12.84508333,77.66386167,0.99804640,847.10000000,
3.680110,0.1087,0.4777,0.0123,0.1973,-0.0342,-0.0434,12.84508333,77.66386167,0.99804640,847.10000000,
3.686799,0.1087,0.4777,0.0123,0.1973,-0.0342,-0.0434,12.84508333,77.66386167,0.99804640,847.10000000,
3.688781,0.0827,0.4020,0.1170,0.1973,-0.0342,-0.0434,12.84508333,77.66386167,0.99804640,847.10000000,
3.696625,0.0827,0.4020,0.1170,0.3146,0.0892,0.0238,12.84508333,77.66386167,0.99804640,847.10000000,
3.707644,0.0827,0.4020,0.1170,0.3146,0.0892,0.0238,12.84508333,77.66386167,0.99804640,847.10000000,
3.709194,0.0098,0.4766,-0.0031,0.3146,0.0892,0.0238,12.84508333,77.66386167,0.99804640,847.10000000,
3.715883,0.0098,0.4766,-0.0031,0.3903,0.1515,0.0794,12.84508333,77.66386167,0.99804640,847.10000000,
3.727966,0.0098,0.4766,-0.0031,0.3903,0.1515,0.0794,12.84508333,77.66386167,0.99804640,847.10000000,
3.729415,0.0552,0.6524,-0.1368,0.3903,0.1515,0.0794,12.84508333,77.66386167,0.99804640,847.10000000,
3.736191,0.0552,0.6524,-0.1368,0.4368,0.0379,0.1234,12.84508333,77.66386167,0.99804640,847.10000000,
3.747622,0.0552,0.6524,-0.1368,0.4368,0.0379,0.1234,12.84508333,77.66386167,0.99804640,847.10000000,
3.749263,0.2769,0.4275,-0.1242,0.4368,0.0379,0.1234,12.84508333,77.66386167,0.99804640,847.10000000,
3.756647,0.2769,0.4275,-0.1242,0.3635,-0.2352,0.1081,12.84508333,77.66386167,0.99804640,847.10000000,
3.768823,0.2769,0.4275,-0.1242,0.3635,-0.2352,0.1081,12.84508333,77.66386167,0.99804640,847.10000000,
3.770795,0.6371,-0.0350,0.7321,0.3635,-0.2352,0.1081,12.84508333,77.66386167,0.99804640,847.10000000,
3.781286,0.6371,-0.0350,0.7321,0.2181,-0.5119,0.0629,12.84508333,77.66386167,0.99804640,847.10000000,
3.787238,0.6371,-0.0350,0.7321,0.2181,-0.5119,0.0629,12.84508333,77.66386167,0.99804640,847.10000000,
3.788595,0.7170,-0.3043,1.6914,0.2181,-0.5119,0.0629,12.84508333,77.66386167,0.99804640,847.10000000,
3.796194,0.7170,-0.3043,1.6914,0.1539,-0.2663,-0.0128,12.84508333,77.66386167,0.99804640,847.10000000,
3.806980,0.7170,-0.3043,1.6914,0.1539,-0.2663,-0.0128,12.84508333,77.66386167,0.99804640,847.10000000,
3.808699,0.3442,-0.6023,1.9011,0.1539,-0.2663,-0.0128,12.84508333,77.66386167,0.99804640,847.10000000,
3.816541,0.3442,-0.6023,1.9011,0.1008,0.1698,-0.0971,12.84508333,77.66386167,0.99804640,847.10000000,
3.827916,0.3442,-0.6023,1.9011,0.1008,0.1698,-0.0971,12.84508333,77.66386167,0.99804640,847.10000000,
3.829845,-0.2503,-0.9395,1.7998,0.1008,0.1698,-0.0971,12.84508333,77.66386167,0.99804640,847.10000000,
3.835635,-0.2503,-0.9395,1.7998,-0.0134,0.3439,-0.1087,12.84508333,77.66386167,0.99804640,847.10000000,
3.848567,-0.2503,-0.9395,1.7998,-0.0134,0.3439,-0.1087,12.84508333,77.66386167,0.99804640,847.10000000,
3.850686,-0.4094,-0.8433,1.7997,-0.0134,0.3439,-0.1087,12.84508333,77.66386167,0.99804640,847.10000000,
3.857097,-0.4094,-0.8433,1.7997,-0.1820,0.2590,-0.0629,12.84508333,77.66386167,0.99804640,847.10000000,
3.867557,-0.4094,-0.8433,1.7997,-0.1820,0.2590,-0.0629,12.84508333,77.66386167,0.99804640,847.10000000,
3.869709,-0.2304,-0.8140,1.8565,-0.1820,0.2590,-0.0629,12.84508333,77.66386167,0.99804640,847.10000000,
3.877859,-0.2304,-0.8140,1.8565,-0.4050,0.0415,-0.1271,12.84508333,77.66386167,0.99804640,847.10000000,
3.886933,-0.2304,-0.8140,1.8565,-0.4050,0.0415,-0.1271,12.84508333,77.66386167,0.99804640,847.10000000,
3.888781,-0.3611,-1.0682,2.2993,-0.4050,0.0415,-0.1271,12.84508333,77.66386167,0.99804640,847.10000000,
3.896295,-0.3611,-1.0682,2.2993,-0.5522,-0.0428,-0.1784,12.84508333,77.66386167,0.99804640,847.10000000,
3.906829,-0.3611,-1.0682,2.2993,-0.5522,-0.0428,-0.1784,12.84508333,77.66386167,0.99804640,847.10000000,
3.908212,-0.7394,-1.6296,2.6957,-0.5522,-0.0428,-0.1784,12.84508333,77.66386167,0.99804640,847.10000000,
3.916100,-0.7394,-1.6296,2.6957,-0.4575,0.2089,-0.0666,12.84508333,77.66386167,0.99804640,847.10000000,
3.927087,-0.7394,-1.6296,2.6957,-0.4575,0.2089,-0.0666,12.84508333,77.66386167,0.99804640,847.10000000,
3.928886,-1.0627,-1.8785,2.3381,-0.4575,0.2089,-0.0666,12.84508333,77.66386167,0.99804640,847.10000000,
3.937090,-1.0627,-1.8785,2.3381,-0.1790,0.5370,0.1552,12.84508333,77.66386167,0.99804640,847.10000000,
3.948139,-1.0627,-1.8785,2.3381,-0.1790,0.5370,0.1552,12.84508333,77.66386167,0.99804640,847.10000000,
3.950192,-0.9583,-1.5944,1.5223,-0.1790,0.5370,0.1552,12.84508333,77.66386167,0.99804640,847.10000000,
3.955861,-0.9583,-1.5944,1.5223,0.1252,0.5999,0.3506,12.84508333,77.66386167,0.99804640,847.10000000,
3.966769,-0.9583,-1.5944,1.5223,0.1252,0.5999,0.3506,12.84508333,77.66386167,0.99804640,847.10000000,
3.968641,-0.2901,-1.2185,0.6745,0.1252,0.5999,0.3506,12.84508333,77.66386167,0.99804640,847.10000000,
3.977325,-0.2901,-1.2185,0.6745,0.2315,0.2749,0.3635,12.84508333,77.66386167,0.99804640,847.10000000,
3.986852,-0.2901,-1.2185,0.6745,0.2315,0.2749,0.3635,12.84508333,77.66386167,0.99804640,847.10000000,
3.988349,0.0766,-0.7017,0.2060,0.2315,0.2749,0.3635,12.84508333,77.66386167,0.99804640,847.10000000,
3.997496,0.0766,-0.7017,0.2060,0.1936,-0.0147,0.2853,12.84508333,77.66386167,0.99804640,847.10000000,
4.006904,0.0766,-0.7017,0.2060,0.1936,-0.0147,0.2853,12.84508333,77.66386167,0.99804640,847.10000000,
4.008448,0.3575,-0.7040,0.0420,0.1936,-0.0147,0.2853,12.84508333,77.66386167,0.99804640,847.10000000,
4.017284,0.3575,-0.7040,0.0420,0.1087,-0.2034,0.1845,12.84508333,77.66386167,0.99804640,847.10000000,
4.026989,0.3575,-0.7040,0.0420,0.1087,-0.2034,0.1845,12.84508333,77.66386167,0.99804640,847.10000000,
4.028687,0.4688,-1.1964,-0.2959,0.1087,-0.2034,0.1845,12.84508333,77.66386167,0.99804640,847.10000000,
4.036595,0.4688,-1.1964,-0.2959,-0.0055,-0.1857,0.1393,12.84508333,77.66386167,0.99804640,847.10000000,
4.047967,0.4688,-1.1964,-0.2959,-0.0055,-0.1857,0.1393,12.84508333,77.66386167,0.99804640,847.10000000,
4.050748,0.3620,-1.2655,-0.5534,-0.0055,-0.1857,0.1393,12.84508333,77.66386167,0.99804640,847.10000000,
4.056328,0.3620,-1.2655,-0.5534,-0.1545,-0.1918,0.1527,12.84508333,77.66386167,0.99804640,847.10000000,
4.067752,0.3620,-1.2655,-0.5534,-0.1545,-0.1918,0.1527,12.84508333,77.66386167,0.99804640,847.10000000,
4.069481,0.4898,-1.1524,-0.5968,-0.1545,-0.1918,0.1527,12.84508333,77.66386167,0.99804640,847.10000000,
4.077355,0.4898,-1.1524,-0.5968,-0.2883,-0.1906,0.1203,12.84508333,77.66386167,0.99804640,847.10000000,
4.086976,0.4898,-1.1524,-0.5968,-0.2883,-0.1906,0.1203,12.84508333,77.66386167,0.99804640,847.10000000,
4.088680,0.6617,-1.0193,-0.3685,-0.2883,-0.1906,0.1203,12.84508333,77.66386167,0.99804640,847.10000000,
4.095622,0.6617,-1.0193,-0.3685,-0.3183,-0.1271,0.0379,12.84508333,77.66386167,0.99804640,847.10000000,
4.107260,0.6617,-1.0193,-0.3685,-0.3183,-0.1271,0.0379,12.84508333,77.66386167,0.99804640,847.10000000,
4.108997,0.4359,-1.0494,-0.3414,-0.3183,-0.1271,0.0379,12.84508333,77.66386167,0.99804640,847.10000000,
4.116440,0.4359,-1.0494,-0.3414,-0.2254,-0.0171,-0.0012,12.84508333,77.66386167,0.99804640,847.10000000,
4.128534,0.4359,-1.0494,-0.3414,-0.2254,-0.0171,-0.0012,12.84508333,77.66386167,0.99804640,847.10000000,
4.130237,0.2342,-1.1696,-0.8270,-0.2254,-0.0171,-0.0012,12.84508333,77.66386167,0.99804640,847.10000000,
4.136412,0.2342,-1.1696,-0.8270,-0.1063,0.1588,-0.0012,12.84508333,77.66386167,0.99804640,847.10000000,
4.147670,0.2342,-1.1696,-0.8270,-0.1063,0.1588,-0.0012,12.84508333,77.66386167,0.99804640,847.10000000,
4.149554,0.0173,-1.1240,-1.4929,-0.1063,0.1588,-0.0012,12.84508333,77.66386167,0.99804640,847.10000000,
4.157002,0.0173,-1.1240,-1.4929,-0.0556,0.3360,0.0257,12.84508333,77.66386167,0.99804640,847.10000000,
4.167630,0.0173,-1.1240,-1.4929,-0.0556,0.3360,0.0257,12.84508333,77.66386167,0.99804640,847.10000000,
4.169484,-0.2556,-0.8455,-2.0372,-0.0556,0.3360,0.0257,12.84508333,77.66386167,0.99804640,847.10000000,
4.180336,-0.2556,-0.8455,-2.0372,-0.1008,0.2950,0.0947,12.84508333,77.66386167,0.99804640,847.10000000,
4.186998,-0.2556,-0.8455,-2.0372,-0.1008,0.2950,0.0947,12.84508333,77.66386167,0.99804640,847.10000000,
4.188564,-0.2382,-0.6164,-2.1648,-0.1008,0.2950,0.0947,12.84508333,77.66386167,0.99804640,847.10000000,
4.195731,-0.2382,-0.6164,-2.1648,-0.1820,0.0971,0.1497,12.84508333,77.66386167,0.99804640,847.10000000,
4.207444,-0.2382,-0.6164,-2.1648,-0.1820,0.0971,0.1497,12.84508333,77.66386167,0.99804640,847.10000000,
4.209321,0.0863,-0.4107,-1.7518,-0.1820,0.0971,0.1497,12.84508333,77.66386167,0.99804640,847.10000000,
4.215798,0.0863,-0.4107,-1.7518,-0.2053,-0.0861,0.1600,12.84508333,77.66386167,0.99804640,847.10000000,
4.227615,0.0863,-0.4107,-1.7518,-0.2053,-0.0861,0.1600,12.84508333,77.66386167,0.99804640,847.10000000,
4.229432,0.4284,-0.3323,-1.0372,-0.2053,-0.0861,0.1600,12.84508333,77.66386167,0.99804640,847.10000000,
4.236124,0.4284,-0.3323,-1.0372,-0.0996,-0.0929,0.1185,12.84508333,77.66386167,0.99804640,847.10000000,
4.248307,0.4284,-0.3323,-1.0372,-0.0996,-0.0929,0.1185,12.84508333,77.66386167,0.99804640,847.10000000,
4.250134,0.4456,-0.3071,-0.6813,-0.0996,-0.0929,0.1185,12.84508333,77.66386167,0.99804640,847.10000000,
4.255789,0.4456,-0.3071,-0.6813,0.0342,-0.0531,0.0483,12.84508333,77.66386167,0.99804640,847.10000000,
4.266998,0.4456,-0.3071,-0.6813,0.0342,-0.0531,0.0483,12.84508333,77.66386167,0.99804640,847.10000000,
4.268625,0.1602,-0.1463,-0.4381,0.0342,-0.0531,0.0483,12.84508333,77.66386167,0.99804640,847.10000000,
4.277513,0.1602,-0.1463,-0.4381,0.1277,-0.0281,-0.0043,12.84508333,77.66386167,0.99804640,847.10000000,
4.287533,0.1602,-0.1463,-0.4381,0.1277,-0.0281,-0.0043,12.84508333,77.66386167,0.99804640,847.10000000,
4.289182,-0.2711,-0.0482,-0.3219,0.1277,-0.0281,-0.0043,12.84508333,77.66386167,0.99804640,847.10000000,
4.296476,-0.2711,-0.0482,-0.3219,0.1637,0.0104,0.0428,12.84508333,77.66386167,0.99804640,847.10000000,
4.308505,-0.2711,-0.0482,-0.3219,0.1637,0.0104,0.0428,12.84508333,77.66386167,0.99804640,847.10000000,
4.309908,-0.2783,-0.0792,-0.0767,0.1637,0.0104,0.0428,12.84508333,77.66386167,0.99804640,847.10000000,
4.315634,-0.2783,-0.0792,-0.0767,0.1778,-0.0024,0.1491,12.84508333,77.66386167,0.99804640,847.10000000,
4.328516,-0.2783,-0.0792,-0.0767,0.1778,-0.0024,0.1491,12.84508333,77.66386167,0.99804640,847.10000000,
4.330486,0.2341,-0.2450,0.8506,0.1778,-0.0024,0.1491,12.84508333,77.66386167,0.99804640,847.10000000,
4.337310,0.2341,-0.2450,0.8506,0.2572,-0.0513,0.2077,12.84508333,77.66386167,0.99804640,847.10000000,
4.348327,0.2341,-0.2450,0.8506,0.2572,-0.0513,0.2077,12.84508333,77.66386167,0.99804640,847.10000000,
4.351865,0.4602,-0.1225,1.9388,0.2572,-0.0513,0.2077,12.84508333,77.66386167,0.99804640,847.10000000,
4.356050,0.4602,-0.1225,1.9388,0.4252,0.0464,0.2156,12.84508333,77.66386167,0.99804640,847.10000000,
4.367631,0.4602,-0.1225,1.9388,0.4252,0.0464,0.2156,12.84508333,77.66386167,0.99804640,847.10000000,
4.369446,-0.0334,0.2160,2.2410,0.4252,0.0464,0.2156,12.84508333,77.66386167,0.99804640,847.10000000,
4.380486,-0.0334,0.2160,2.2410,0.6170,0.1515,0.2071,12.84508333,77.66386167,0.99804640,847.10000000,
4.386886,-0.0334,0.2160,2.2410,0.6170,0.1515,0.2071,12.84508333,77.66386167,0.99804640,847.10000000,
4.388356,-0.1357,0.1966,1.9352,0.6170,0.1515,0.2071,12.84508333,77.66386167,0.99804640,847.10000000,
4.398931,-0.1357,0.1966,1.9352,0.7330,0.1448,0.2034,12.84508333,77.66386167,0.99804640,847.10000000,
4.408117,-0.1357,0.1966,1.9352,0.7330,0.1448,0.2034,12.84508333,77.66386167,0.99804640,847.10000000,
4.410112,0.4235,-0.2103,1.3670,0.7330,0.1448,0.2034,12.84508333,77.66386167,0.99804640,847.10000000,
4.417348,0.4235,-0.2103,1.3670,0.6524,-0.0904,0.2022,12.84508333,77.66386167,0.99804640,847.10000000,
4.429684,0.4235,-0.2103,1.3670,0.6524,-0.0904,0.2022,12.84508333,77.66386167,0.99804640,847.10000000,
4.432334,0.7729,-0.3312,1.1561,0.6524,-0.0904,0.2022,12.84508333,77.66386167,0.99804640,847.10000000,
4.436541,0.7729,-0.3312,1.1561,0.4319,-0.3012,0.1839,12.84508333,77.66386167,0.99804640,847.10000000,
4.447536,0.7729,-0.3312,1.1561,0.4319,-0.3012,0.1839,12.84508333,77.66386167,0.99804640,847.10000000,
4.448847,0.7678,-0.2856,1.4803,0.4319,-0.3012,0.1839,12.84508333,77.66386167,0.99804640,847.10000000,
4.456378,0.7678,-0.2856,1.4803,0.2621,-0.2114,0.0941,12.84508333,77.66386167,0.99804640,847.10000000,
4.468089,0.7678,-0.2856,1.4803,0.2621,-0.2114,0.0941,12.84508333,77.66386167,0.99804640,846.70000000,
4.469894,0.5957,-0.7872,1.6228,0.2621,-0.2114,0.0941,12.84509500,77.66386000,1.22246528,846.70000000,
4.476676,0.5957,-0.7872,1.6228,0.1686,0.0330,0.0006,12.84509500,77.66386000,1.22246528,846.70000000,
4.486837,0.5957,-0.7872,1.6228,0.1686,0.0330,0.0006,12.84509500,77.66386000,1.22246528,846.70000000,
4.488432,0.2618,-1.0436,1.1451,0.1686,0.0330,0.0006,12.84509500,77.66386000,1.22246528,846.70000000,
4.495861,0.2618,-1.0436,1.1451,-0.0067,0.1277,-0.0605,12.84509500,77.66386000,1.22246528,846.70000000,
4.506692,0.2618,-1.0436,1.1451,-0.0067,0.1277,-0.0605,12.84509500,77.66386000,1.22246528,846.70000000,
4.508019,0.0424,-0.7705,0.6468,-0.0067,0.1277,-0.0605,12.84509500,77.66386000,1.22246528,846.70000000,
4.516301,0.0424,-0.7705,0.6468,-0.3140,-0.0086,-0.0611,12.84509500,77.66386000,1.22246528,846.70000000,
4.528239,0.0424,-0.7705,0.6468,-0.3140,-0.0086,-0.0611,12.84509500,77.66386000,1.22246528,846.70000000,
4.529918,0.4967,-0.4905,1.0672,-0.3140,-0.0086,-0.0611,12.84509500,77.66386000,1.22246528,846.70000000,
4.536198,0.4967,-0.4905,1.0672,-0.4667,-0.1051,-0.1008,12.84509500,77.66386000,1.22246528,846.70000000,
4.547560,0.4967,-0.4905,1.0672,-0.4667,-0.1051,-0.1008,12.84509500,77.66386000,1.22246528,846.70000000,
4.549269,1.0268,-0.8078,1.9454,-0.4667,-0.1051,-0.1008,12.84509500,77.66386000,1.22246528,846.70000000,
4.555645,1.0268,-0.8078,1.9454,-0.2615,-0.1857,-0.2437,12.84509500,77.66386000,1.22246528,846.70000000,
4.568262,1.0268,-0.8078,1.9454,-0.2615,-0.1857,-0.2437,12.84509500,77.66386000,1.22246528,846.70000000,
4.570268,0.7482,-1.2417,1.8955,-0.2615,-0.1857,-0.2437,12.84509500,77.66386000,1.22246528,846.70000000,
4.577198,0.7482,-1.2417,1.8955,0.1558,-0.1576,-0.3793,12.84509500,77.66386000,1.22246528,846.70000000,
4.586835,0.7482,-1.2417,1.8955,0.1558,-0.1576,-0.3793,12.84509500,77.66386000,1.22246528,846.70000000,
4.588121,0.1669,-1.4179,0.8364,0.1558,-0.1576,-0.3793,12.84509500,77.66386000,1.22246528,846.70000000,
4.596619,0.1669,-1.4179,0.8364,0.3396,0.0012,-0.4129,12.84509500,77.66386000,1.22246528,846.70000000,
4.609122,0.1669,-1.4179,0.8364,0.3396,0.0012,-0.4129,12.84509500,77.66386000,1.22246528,846.70000000,
4.610650,-0.1051,-1.2320,-0.5112,0.3396,0.0012,-0.4129,12.84509500,77.66386000,1.22246528,846.70000000,
4.617704,-0.1051,-1.2320,-0.5112,0.1967,0.1558,-0.3231,12.84509500,77.66386000,1.22246528,846.70000000,
4.627589,-0.1051,-1.2320,-0.5112,0.1967,0.1558,-0.3231,12.84509500,77.66386000,1.22246528,846.70000000,
4.629473,0.0676,-1.0528,-0.9339,0.1967,0.1558,-0.3231,12.84509500,77.66386000,1.22246528,846.70000000,
4.636946,0.0676,-1.0528,-0.9339,-0.0367,0.3189,-0.2425,12.84509500,77.66386000,1.22246528,846.70000000,
4.648266,0.0676,-1.0528,-0.9339,-0.0367,0.3189,-0.2425,12.84509500,77.66386000,1.22246528,846.70000000,
4.650333,0.4116,-1.0629,-0.7289,-0.0367,0.3189,-0.2425,12.84509500,77.66386000,1.22246528,846.70000000,
4.655477,0.4116,-1.0629,-0.7289,-0.1344,0.3470,-0.2663,12.84509500,77.66386000,1.22246528,846.70000000,
4.667215,0.4116,-1.0629,-0.7289,-0.1344,0.3470,-0.2663,12.84509500,77.66386000,1.22246528,846.70000000,
4.669280,0.4481,-0.7375,-0.4058,-0.1344,0.3470,-0.2663,12.84509500,77.66386000,1.22246528,846.70000000,
4.677169,0.4481,-0.7375,-0.4058,-0.1020,0.1191,-0.3048,12.84509500,77.66386000,1.22246528,846.70000000,
4.687114,0.4481,-0.7375,-0.4058,-0.1020,0.1191,-0.3048,12.84509500,77.66386000,1.22246528,846.70000000,
4.689432,0.4541,-0.4657,-0.3613,-0.1020,0.1191,-0.3048,12.84509500,77.66386000,1.22246528,846.70000000,
4.695554,0.4541,-0.4657,-0.3613,-0.0507,-0.1307,-0.2480,12.84509500,77.66386000,1.22246528,846.70000000,
4.707996,0.4541,-0.4657,-0.3613,-0.0507,-0.1307,-0.2480,12.84509500,77.66386000,1.22246528,846.70000000,
4.710358,0.8808,-0.4478,-0.4563,-0.0507,-0.1307,-0.2480,12.84509500,77.66386000,1.22246528,846.70000000,
4.716668,0.8808,-0.4478,-0.4563,0.0116,-0.2260,-0.2199,12.84509500,77.66386000,1.22246528,846.70000000,
4.728641,0.8808,-0.4478,-0.4563,0.0116,-0.2260,-0.2199,12.84509500,77.66386000,1.22246528,846.70000000,
4.730355,1.2203,-0.5487,-0.5741,0.0116,-0.2260,-0.2199,12.84509500,77.66386000,1.22246528,846.70000000,
4.735476,1.2203,-0.5487,-0.5741,0.1020,-0.0696,-0.3231,12.84509500,77.66386000,1.22246528,846.70000000,
4.746825,1.2203,-0.5487,-0.5741,0.1020,-0.0696,-0.3231,12.84509500,77.66386000,1.22246528,846.70000000,
4.748775,0.9592,-0.3970,-0.7901,0.1020,-0.0696,-0.3231,12.84509500,77.66386000,1.22246528,846.70000000,
4.755654,0.9592,-0.3970,-0.7901,0.1900,0.2046,-0.4325,12.84509500,77.66386000,1.22246528,846.70000000,
4.767722,0.9592,-0.3970,-0.7901,0.1900,0.2046,-0.4325,12.84509500,77.66386000,1.22246528,846.70000000,
4.770101,0.2562,-0.4310,-1.6607,0.1900,0.2046,-0.4325,12.84509500,77.66386000,1.22246528,846.70000000,
4.776646,0.2562,-0.4310,-1.6607,0.1643,0.3384,-0.4215,12.84509500,77.66386000,1.22246528,846.70000000,
4.787723,0.2562,-0.4310,-1.6607,0.1643,0.3384,-0.4215,12.84509500,77.66386000,1.22246528,846.70000000,
4.789203,-0.1318,-0.4218,-2.3970,0.1643,0.3384,-0.4215,12.84509500,77.66386000,1.22246528,846.70000000,
4.798219,-0.1318,-0.4218,-2.3970,0.0202,0.2498,-0.2816,12.84509500,77.66386000,1.22246528,846.70000000,
4.810749,-0.1318,-0.4218,-2.3970,0.0202,0.2498,-0.2816,12.84509500,77.66386000,1.22246528,846.70000000,
4.813435,-0.1783,-0.1136,-2.3859,0.0202,0.2498,-0.2816,12.84509500,77.66386000,1.22246528,846.70000000,
4.816342,-0.1783,-0.1136,-2.3859,-0.1136,0.0324,-0.1319,12.84509500,77.66386000,1.22246528,846.70000000,
4.827690,-0.1783,-0.1136,-2.3859,-0.1136,0.0324,-0.1319,12.84509500,77.66386000,1.22246528,846.70000000,
4.829370,0.4151,0.1006,-1.5305,-0.1136,0.0324,-0.1319,12.84509500,77.66386000,1.22246528,846.70000000,
4.836098,0.4151,0.1006,-1.5305,-0.1124,-0.1588,-0.1301,12.84509500,77.66386000,1.22246528,846.70000000,
4.849051,0.4151,0.1006,-1.5305,-0.1124,-0.1588,-0.1301,12.84509500,77.66386000,1.22246528,846.70000000,
4.850512,0.7261,-0.0278,-0.8831,-0.1124,-0.1588,-0.1301,12.84509500,77.66386000,1.22246528,846.70000000,
4.855699,0.7261,-0.0278,-0.8831,-0.0073,-0.1967,-0.2211,12.84509500,77.66386000,1.22246528,846.70000000,
4.867401,0.7261,-0.0278,-0.8831,-0.0073,-0.1967,-0.2211,12.84509500,77.66386000,1.22246528,846.70000000,
4.869210,0.4776,-0.2466,-0.9168,-0.0073,-0.1967,-0.2211,12.84509500,77.66386000,1.22246528,846.70000000,
4.877402,0.4776,-0.2466,-0.9168,0.0727,-0.1081,-0.2535,12.84509500,77.66386000,1.22246528,846.70000000,
4.887674,0.4776,-0.2466,-0.9168,0.0727,-0.1081,-0.2535,12.84509500,77.66386000,1.22246528,846.70000000,
4.889398,0.0584,-0.3029,-1.2033,0.0727,-0.1081,-0.2535,12.84509500,77.66386000,1.22246528,846.70000000,
4.896645,0.0584,-0.3029,-1.2033,0.0061,-0.0660,-0.1784,12.84509500,77.66386000,1.22246528,846.70000000,
4.907276,0.0584,-0.3029,-1.2033,0.0061,-0.0660,-0.1784,12.84509500,77.66386000,1.22246528,846.70000000,
4.908712,-0.2209,0.0283,-0.9547,0.0061,-0.0660,-0.1784,12.84509500,77.66386000,1.22246528,846.70000000,
4.916627,-0.2209,0.0283,-0.9547,-0.0947,-0.0641,-0.0391,12.84509500,77.66386000,1.22246528,846.70000000,
4.927893,-0.2209,0.0283,-0.9547,-0.0947,-0.0641,-0.0391,12.84509500,77.66386000,1.22246528,846.70000000,
4.929475,-0.0969,0.1120,-0.2184,-0.0947,-0.0641,-0.0391,12.84509500,77.66386000,1.22246528,846.70000000,
4.935548,-0.0969,0.1120,-0.2184,-0.0874,-0.0519,0.0605,12.84509500,77.66386000,1.22246528,846.70000000,
4.947902,-0.0969,0.1120,-0.2184,-0.0874,-0.0519,0.0605,12.84509500,77.66386000,1.22246528,846.70000000,
4.949798,0.3391,0.0980,0.4082,-0.0874,-0.0519,0.0605,12.84509500,77.66386000,1.22246528,846.70000000,
4.955538,0.3391,0.0980,0.4082,0.0348,-0.0489,0.0660,12.84509500,77.66386000,1.22246528,846.70000000,
4.967289,0.3391,0.0980,0.4082,0.0348,-0.0489,0.0660,12.84509500,77.66386000,1.22246528,846.70000000,
4.968557,0.4053,0.1093,0.7259,0.0348,-0.0489,0.0660,12.84509500,77.66386000,1.22246528,846.70000000,
4.976832,0.4053,0.1093,0.7259,0.1674,-0.0470,0.0318,12.84509500,77.66386000,1.22246528,846.70000000,
4.987444,0.4053,0.1093,0.7259,0.1674,-0.0470,0.0318,12.84509500,77.66386000,1.22246528,846.70000000,
4.988875,0.1341,0.3715,0.7428,0.1674,-0.0470,0.0318,12.84509500,77.66386000,1.22246528,846.70000000,
4.996257,0.1341,0.3715,0.7428,0.2804,0.0470,0.0586,12.84509500,77.66386000,1.22246528,846.70000000,
5.009649,0.1341,0.3715,0.7428,0.2804,0.0470,0.0586,12.84509500,77.66386000,1.22246528,846.70000000,
5.010899,0.0232,0.7680,0.8802,0.2804,0.0470,0.0586,12.84509500,77.66386000,1.22246528,846.70000000,
5.016622,0.0232,0.7680,0.8802,0.3861,0.1545,0.1014,12.84509500,77.66386000,1.22246528,846.70000000,
5.027725,0.0232,0.7680,0.8802,0.3861,0.1545,0.1014,12.84509500,77.66386000,1.22246528,846.70000000,
5.029221,0.4770,0.5055,0.9224,0.3861,0.1545,0.1014,12.84509500,77.66386000,1.22246528,846.70000000,
5.035548,0.4770,0.5055,0.9224,0.4050,0.0904,0.0751,12.84509500,77.66386000,1.22246528,846.70000000,
5.048535,0.4770,0.5055,0.9224,0.4050,0.0904,0.0751,12.84509500,77.66386000,1.22246528,846.70000000,
5.050024,0.8437,-0.1343,0.6858,0.4050,0.0904,0.0751,12.84509500,77.66386000,1.22246528,846.70000000,
5.055338,0.8437,-0.1343,0.6858,0.2254,-0.0531,0.0214,12.84509500,77.66386000,1.22246528,846.70000000,
5.067199,0.8437,-0.1343,0.6858,0.2254,-0.0531,0.0214,12.84509500,77.66386000,1.22246528,846.70000000,
5.068720,0.3958,-0.0151,1.0492,0.2254,-0.0531,0.0214,12.84509500,77.66386000,1.22246528,846.70000000,
5.077249,0.3958,-0.0151,1.0492,0.0165,0.0324,0.0428,12.84509500,77.66386000,1.22246528,846.70000000,
5.087831,0.3958,-0.0151,1.0492,0.0165,0.0324,0.0428,12.84509500,77.66386000,1.22246528,846.70000000,
5.089395,-0.0487,0.1466,1.9484,0.0165,0.0324,0.0428,12.84509500,77.66386000,1.22246528,846.70000000,
5.096276,-0.0487,0.1466,1.9484,-0.0049,0.1460,0.0764,12.84509500,77.66386000,1.22246528,846.70000000,
5.107791,-0.0487,0.1466,1.9484,-0.0049,0.1460,0.0764,12.84509500,77.66386000,1.22246528,846.70000000,
5.109253,-0.2589,-0.2459,2.2895,-0.0049,0.1460,0.0764,12.84509500,77.66386000,1.22246528,846.70000000,
5.116594,-0.2589,-0.2459,2.2895,0.0550,0.1008,0.0819,12.84509500,77.66386000,1.22246528,846.70000000,
5.126700,-0.2589,-0.2459,2.2895,0.0550,0.1008,0.0819,12.84509500,77.66386000,1.22246528,846.70000000,
5.128542,-0.3725,-0.3431,2.0307,0.0550,0.1008,0.0819,12.84509500,77.66386000,1.22246528,846.70000000,
5.136007,-0.3725,-0.3431,2.0307,0.0501,-0.0611,0.1026,12.84509500,77.66386000,1.22246528,846.70000000,
5.147266,-0.3725,-0.3431,2.0307,0.0501,-0.0611,0.1026,12.84509500,77.66386000,1.22246528,846.70000000,
5.149164,0.0596,-0.4180,1.5043,0.0501,-0.0611,0.1026,12.84509500,77.66386000,1.22246528,846.70000000,
5.156196,0.0596,-0.4180,1.5043,-0.1038,-0.2083,0.0165,12.84509500,77.66386000,1.22246528,846.70000000,
5.167193,0.0596,-0.4180,1.5043,-0.1038,-0.2083,0.0165,12.84509500,77.66386000,1.22246528,846.70000000,
5.168680,0.4893,-0.7365,1.3997,-0.1038,-0.2083,0.0165,12.84509500,77.66386000,1.22246528,846.70000000,
5.177523,0.4893,-0.7365,1.3997,-0.2633,-0.2309,-0.1301,12.84509500,77.66386000,1.22246528,846.70000000,
5.187610,0.4893,-0.7365,1.3997,-0.2633,-0.2309,-0.1301,12.84509500,77.66386000,1.22246528,846.70000000,
5.189415,0.0527,-0.9141,1.9721,-0.2633,-0.2309,-0.1301,12.84509500,77.66386000,1.22246528,846.70000000,
5.196309,0.0527,-0.9141,1.9721,-0.1680,-0.0275,-0.1735,12.84509500,77.66386000,1.22246528,846.70000000,
5.207530,0.0527,-0.9141,1.9721,-0.1680,-0.0275,-0.1735,12.84509500,77.66386000,1.22246528,846.70000000,
5.209116,-0.7889,-1.1424,1.7193,-0.1680,-0.0275,-0.1735,12.84509500,77.66386000,1.22246528,846.70000000,
5.215806,-0.7889,-1.1424,1.7193,0.1161,0.2279,-0.0806,12.84509500,77.66386000,1.22246528,846.70000000,
5.226866,-0.7889,-1.1424,1.7193,0.1161,0.2279,-0.0806,12.84509500,77.66386000,1.22246528,846.70000000,
5.229463,-1.2731,-1.0938,0.7136,0.1161,0.2279,-0.0806,12.84509500,77.66386000,1.22246528,846.70000000,
5.235945,-1.2731,-1.0938,0.7136,0.2993,0.3457,0.0501,12.84509500,77.66386000,1.22246528,846.70000000,
5.247540,-1.2731,-1.0938,0.7136,0.2993,0.3457,0.0501,12.84509500,77.66386000,1.22246528,846.70000000,
5.249391,-1.1249,-0.8508,-0.6185,0.2993,0.3457,0.0501,12.84509500,77.66386000,1.22246528,846.70000000,
5.255684,-1.1249,-0.8508,-0.6185,0.1717,0.2443,0.1576,12.84509500,77.66386000,1.22246528,846.70000000,
5.267986,-1.1249,-0.8508,-0.6185,0.1717,0.2443,0.1576,12.84509500,77.66386000,1.22246528,846.70000000,
5.269601,-0.9587,-0.5160,-1.2815,0.1717,0.2443,0.1576,12.84509500,77.66386000,1.22246528,846.70000000,
5.276988,-0.9587,-0.5160,-1.2815,-0.1552,0.0770,0.2285,12.84509500,77.66386000,1.22246528,846.70000000,
5.287760,-0.9587,-0.5160,-1.2815,-0.1552,0.0770,0.2285,12.84509500,77.66386000,1.22246528,846.70000000,
5.289604,-0.3413,-0.6347,-0.7121,-0.1552,0.0770,0.2285,12.84509500,77.66386000,1.22246528,846.70000000,
5.296489,-0.3413,-0.6347,-0.7121,-0.3176,-0.1014,0.2395,12.84509500,77.66386000,1.22246528,846.70000000,
5.307375,-0.3413,-0.6347,-0.7121,-0.3176,-0.1014,0.2395,12.84509500,77.66386000,1.22246528,846.70000000,
5.309049,0.0957,-1.0902,-0.1357,-0.3176,-0.1014,0.2395,12.84509500,77.66386000,1.22246528,846.70000000,
5.316622,0.0957,-1.0902,-0.1357,-0.2297,-0.1772,0.1784,12.84509500,77.66386000,1.22246528,846.70000000,
5.327001,0.0957,-1.0902,-0.1357,-0.2297,-0.1772,0.1784,12.84509500,77.66386000,1.22246528,846.70000000,
5.328912,-0.0202,-1.0399,-0.2747,-0.2297,-0.1772,0.1784,12.84509500,77.66386000,1.22246528,846.70000000,
5.336066,-0.0202,-1.0399,-0.2747,-0.0733,-0.1613,0.1704,12.84509500,77.66386000,1.22246528,846.70000000,
5.346964,-0.0202,-1.0399,-0.2747,-0.0733,-0.1613,0.1704,12.84509500,77.66386000,1.22246528,846.70000000,
5.348773,-0.2419,-0.8526,-1.0582,-0.0733,-0.1613,0.1704,12.84509500,77.66386000,1.22246528,846.70000000,
5.355516,-0.2419,-0.8526,-1.0582,-0.0470,-0.1649,0.2126,12.84509500,77.66386000,1.22246528,846.70000000,
5.366636,-0.2419,-0.8526,-1.0582,-0.0470,-0.1649,0.2126,12.84509500,77.66386000,1.22246528,846.70000000,
5.368961,-0.1101,-0.7800,-1.5084,-0.0470,-0.1649,0.2126,12.84509500,77.66386000,1.22246528,846.70000000,
5.376987,-0.1101,-0.7800,-1.5084,-0.1955,-0.2071,0.1845,12.84509500,77.66386000,1.22246528,846.70000000,
5.387655,-0.1101,-0.7800,-1.5084,-0.1955,-0.2071,0.1845,12.84509500,77.66386000,1.22246528,846.70000000,
5.389322,0.0101,-0.5250,-1.3042,-0.1955,-0.2071,0.1845,12.84509500,77.66386000,1.22246528,846.70000000,
5.396301,0.0101,-0.5250,-1.3042,-0.3262,-0.1436,0.1319,12.84509500,77.66386000,1.22246528,846.70000000,
5.406907,0.0101,-0.5250,-1.3042,-0.3262,-0.1436,0.1319,12.84509500,77.66386000,1.22246528,846.70000000,
5.408577,0.0496,-0.5944,-0.7887,-0.3262,-0.1436,0.1319,12.84509500,77.66386000,1.22246528,846.70000000,
5.417035,0.0496,-0.5944,-0.7887,-0.3250,-0.0159,0.1008,12.84509500,77.66386000,1.22246528,846.70000000,
5.426939,0.0496,-0.5944,-0.7887,-0.3250,-0.0159,0.1008,12.84509500,77.66386000,1.22246528,846.70000000,
5.428369,-0.0526,-0.6946,-0.6859,-0.3250,-0.0159,0.1008,12.84509500,77.66386000,1.22246528,846.70000000,
5.435696,-0.0526,-0.6946,-0.6859,-0.2205,0.1271,0.0983,12.84509500,77.66386000,1.22246528,846.70000000,
5.451037,-0.0526,-0.6946,-0.6859,-0.2205,0.1271,0.0983,12.84509500,77.66386000,1.22246528,846.70000000,
5.452791,-0.2284,-0.6468,-0.8749,-0.2205,0.1271,0.0983,12.84509500,77.66386000,1.22246528,846.70000000,
5.455438,-0.2284,-0.6468,-0.8749,-0.1032,0.2053,0.1454,12.84509500,77.66386000,1.22246528,846.70000000,
5.467372,-0.2284,-0.6468,-0.8749,-0.1032,0.2053,0.1454,12.84509500,77.66386000,1.22246528,846.30000000,
5.469050,-0.2198,-0.4251,-1.2384,-0.1032,0.2053,0.1454,12.84510833,77.66386000,1.03510642,846.30000000,
5.476503,-0.2198,-0.4251,-1.2384,-0.0134,0.1753,0.1796,12.84510833,77.66386000,1.03510642,846.30000000,
5.487544,-0.2198,-0.4251,-1.2384,-0.0134,0.1753,0.1796,12.84510833,77.66386000,1.03510642,846.30000000,
5.489110,-0.1302,-0.2613,-1.5441,-0.0134,0.1753,0.1796,12.84510833,77.66386000,1.03510642,846.30000000,
5.496567,-0.1302,-0.2613,-1.5441,0.0281,0.0721,0.1784,12.84510833,77.66386000,1.03510642,846.30000000,
5.508286,-0.1302,-0.2613,-1.5441,0.0281,0.0721,0.1784,12.84510833,77.66386000,1.03510642,846.30000000,
5.509933,-0.1460,-0.0287,-1.6520,0.0281,0.0721,0.1784,12.84510833,77.66386000,1.03510642,846.30000000,
5.515675,-0.1460,-0.0287,-1.6520,0.0373,-0.0037,0.1374,12.84510833,77.66386000,1.03510642,846.30000000,
5.527227,-0.1460,-0.0287,-1.6520,0.0373,-0.0037,0.1374,12.84510833,77.66386000,1.03510642,846.30000000,
5.529290,-0.3940,0.0613,-1.6499,0.0373,-0.0037,0.1374,12.84510833,77.66386000,1.03510642,846.30000000,
5.536293,-0.3940,0.0613,-1.6499,0.0018,-0.0226,0.1063,12.84510833,77.66386000,1.03510642,846.30000000,
5.547276,-0.3940,0.0613,-1.6499,0.0018,-0.0226,0.1063,12.84510833,77.66386000,1.03510642,846.30000000,
5.549125,-0.6366,-0.0165,-1.4728,0.0018,-0.0226,0.1063,12.84510833,77.66386000,1.03510642,846.30000000,
5.556564,-0.6366,-0.0165,-1.4728,-0.0788,-0.0165,0.1417,12.84510833,77.66386000,1.03510642,846.30000000,
5.568564,-0.6366,-0.0165,-1.4728,-0.0788,-0.0165,0.1417,12.84510833,77.66386000,1.03510642,846.30000000,
5.570292,-0.5257,-0.0412,-0.8502,-0.0788,-0.0165,0.1417,12.84510833,77.66386000,1.03510642,846.30000000,
5.576792,-0.5257,-0.0412,-0.8502,-0.1442,-0.0440,0.2279,12.84510833,77.66386000,1.03510642,846.30000000,
5.587459,-0.5257,-0.0412,-0.8502,-0.1442,-0.0440,0.2279,12.84510833,77.66386000,1.03510642,846.30000000,
5.589250,-0.2679,0.1046,0.2561,-0.1442,-0.0440,0.2279,12.84510833,77.66386000,1.03510642,846.30000000,
5.596752,-0.2679,0.1046,0.2561,-0.0605,-0.0880,0.2792,12.84510833,77.66386000,1.03510642,846.30000000,
5.606511,-0.2679,0.1046,0.2561,-0.0605,-0.0880,0.2792,12.84510833,77.66386000,1.03510642,846.30000000,
5.607990,0.0333,0.2100,1.3539,-0.0605,-0.0880,0.2792,12.84510833,77.66386000,1.03510642,846.30000000,
5.615899,0.0333,0.2100,1.3539,0.1655,-0.1264,0.2639,12.84510833,77.66386000,1.03510642,846.30000000,
5.627438,0.0333,0.2100,1.3539,0.1655,-0.1264,0.2639,12.84510833,77.66386000,1.03510642,846.30000000,
5.629558,0.1656,0.1821,1.7167,0.1655,-0.1264,0.2639,12.84510833,77.66386000,1.03510642,846.30000000,
5.636057,0.1656,0.1821,1.7167,0.3769,-0.1222,0.2126,12.84510833,77.66386000,1.03510642,846.30000000,
5.647810,0.1656,0.1821,1.7167,0.3769,-0.1222,0.2126,12.84510833,77.66386000,1.03510642,846.30000000,
5.649591,-0.0174,0.0440,1.3473,0.3769,-0.1222,0.2126,12.84510833,77.66386000,1.03510642,846.30000000,
5.655400,-0.0174,0.0440,1.3473,0.3818,-0.1552,0.1930,12.84510833,77.66386000,1.03510642,846.30000000,
5.667526,-0.0174,0.0440,1.3473,0.3818,-0.1552,0.1930,12.84510833,77.66386000,1.03510642,846.30000000,
5.669157,-0.0811,-0.0845,1.2705,0.3818,-0.1552,0.1930,12.84510833,77.66386000,1.03510642,846.30000000,
5.679524,-0.0811,-0.0845,1.2705,0.2126,-0.1393,0.2346,12.84510833,77.66386000,1.03510642,846.30000000,
5.687454,-0.0811,-0.0845,1.2705,0.2126,-0.1393,0.2346,12.84510833,77.66386000,1.03510642,846.30000000,
5.689230,0.2163,-0.3886,1.8885,0.2126,-0.1393,0.2346,12.84510833,77.66386000,1.03510642,846.30000000,
5.695712,0.2163,-0.3886,1.8885,0.0812,-0.1258,0.2987,12.84510833,77.66386000,1.03510642,846.30000000,
5.706521,0.2163,-0.3886,1.8885,0.0812,-0.1258,0.2987,12.84510833,77.66386000,1.03510642,846.30000000,
5.708253,0.3684,-0.6062,2.3335,0.0812,-0.1258,0.2987,12.84510833,77.66386000,1.03510642,846.30000000,
5.715800,0.3684,-0.6062,2.3335,0.1014,0.0434,0.2627,12.84510833,77.66386000,1.03510642,846.30000000,
5.727052,0.3684,-0.6062,2.3335,0.1014,0.0434,0.2627,12.84510833,77.66386000,1.03510642,846.30000000,
5.728949,0.2645,-0.4273,2.0597,0.1014,0.0434,0.2627,12.84510833,77.66386000,1.03510642,846.30000000,
5.736139,0.2645,-0.4273,2.0597,0.0800,0.0434,0.1417,12.84510833,77.66386000,1.03510642,846.30000000,
5.748589,0.2645,-0.4273,2.0597,0.0800,0.0434,0.1417,12.84510833,77.66386000,1.03510642,846.30000000,
5.750136,0.6038,-0.4857,1.3035,0.0800,0.0434,0.1417,12.84510833,77.66386000,1.03510642,846.30000000,
5.755846,0.6038,-0.4857,1.3035,-0.1655,-0.1759,-0.0715,12.84510833,77.66386000,1.03510642,846.30000000,
5.767949,0.6038,-0.4857,1.3035,-0.1655,-0.1759,-0.0715,12.84510833,77.66386000,1.03510642,846.30000000,
5.770343,0.6377,-0.3828,1.0820,-0.1655,-0.1759,-0.0715,12.84510833,77.66386000,1.03510642,846.30000000,
5.776736,0.6377,-0.3828,1.0820,-0.5217,-0.3464,-0.2248,12.84510833,77.66386000,1.03510642,846.30000000,
5.787293,0.6377,-0.3828,1.0820,-0.5217,-0.3464,-0.2248,12.84510833,77.66386000,1.03510642,846.30000000,
5.788730,0.4670,-0.5604,1.9785,-0.5217,-0.3464,-0.2248,12.84510833,77.66386000,1.03510642,846.30000000,
5.796325,0.4670,-0.5604,1.9785,-0.6035,-0.2523,-0.1869,12.84510833,77.66386000,1.03510642,846.30000000,
5.806736,0.4670,-0.5604,1.9785,-0.6035,-0.2523,-0.1869,12.84510833,77.66386000,1.03510642,846.30000000,
5.808222,0.6127,-0.9834,2.7546,-0.6035,-0.2523,-0.1869,12.84510833,77.66386000,1.03510642,846.30000000,
5.816081,0.6127,-0.9834,2.7546,-0.3268,-0.0434,-0.1778,12.84510833,77.66386000,1.03510642,846.30000000,
5.827787,0.6127,-0.9834,2.7546,-0.3268,-0.0434,-0.1778,12.84510833,77.66386000,1.03510642,846.30000000,
5.829550,0.4638,-1.1349,2.1733,-0.3268,-0.0434,-0.1778,12.84510833,77.66386000,1.03510642,846.30000000,
5.835858,0.4638,-1.1349,2.1733,0.0318,0.1924,-0.1955,12.84510833,77.66386000,1.03510642,846.30000000,
5.847263,0.4638,-1.1349,2.1733,0.0318,0.1924,-0.1955,12.84510833,77.66386000,1.03510642,846.30000000,
5.849120,0.0727,-0.9849,0.7485,0.0318,0.1924,-0.1955,12.84510833,77.66386000,1.03510642,846.30000000,
5.855696,0.0727,-0.9849,0.7485,0.1808,0.2016,-0.1643,12.84510833,77.66386000,1.03510642,846.30000000,
5.867601,0.0727,-0.9849,0.7485,0.1808,0.2016,-0.1643,12.84510833,77.66386000,1.03510642,846.30000000,
5.869303,-0.0625,-0.7512,-0.1893,0.1808,0.2016,-0.1643,12.84510833,77.66386000,1.03510642,846.30000000,
5.879997,-0.0625,-0.7512,-0.1893,0.1295,0.0611,-0.1448,12.84510833,77.66386000,1.03510642,846.30000000,
5.886981,-0.0625,-0.7512,-0.1893,0.1295,0.0611,-0.1448,12.84510833,77.66386000,1.03510642,846.30000000,
5.888682,0.0315,-0.9354,-0.5486,0.1295,0.0611,-0.1448,12.84510833,77.66386000,1.03510642,846.30000000,
5.895363,0.0315,-0.9354,-0.5486,0.0525,0.0079,-0.1210,12.84510833,77.66386000,1.03510642,846.30000000,
5.906867,0.0315,-0.9354,-0.5486,0.0525,0.0079,-0.1210,12.84510833,77.66386000,1.03510642,846.30000000,
5.908706,0.1391,-1.0407,-0.7614,0.0525,0.0079,-0.1210,12.84510833,77.66386000,1.03510642,846.30000000,
5.916077,0.1391,-1.0407,-0.7614,-0.0483,0.0079,-0.0855,12.84510833,77.66386000,1.03510642,846.30000000,
5.927047,0.1391,-1.0407,-0.7614,-0.0483,0.0079,-0.0855,12.84510833,77.66386000,1.03510642,846.30000000,
5.928916,0.2358,-0.7806,-0.6806,-0.0483,0.0079,-0.0855,12.84510833,77.66386000,1.03510642,846.30000000,
5.935739,0.2358,-0.7806,-0.6806,-0.1155,0.0031,-0.0171,12.84510833,77.66386000,1.03510642,846.30000000,
5.947568,0.2358,-0.7806,-0.6806,-0.1155,0.0031,-0.0171,12.84510833,77.66386000,1.03510642,846.30000000,
5.949409,0.5589,-0.5947,-0.5506,-0.1155,0.0031,-0.0171,12.84510833,77.66386000,1.03510642,846.30000000,
5.956319,0.5589,-0.5947,-0.5506,-0.1051,0.0140,-0.0446,12.84510833,77.66386000,1.03510642,846.30000000,
5.967445,0.5589,-0.5947,-0.5506,-0.1051,0.0140,-0.0446,12.84510833,77.66386000,1.03510642,846.30000000,
5.969452,0.6138,-0.3818,-0.6724,-0.1051,0.0140,-0.0446,12.84510833,77.66386000,1.03510642,846.30000000,
5.976675,0.6138,-0.3818,-0.6724,-0.0629,0.0446,-0.1442,12.84510833,77.66386000,1.03510642,846.30000000,
5.987419,0.6138,-0.3818,-0.6724,-0.0629,0.0446,-0.1442,12.84510833,77.66386000,1.03510642,846.30000000,
5.989096,0.3633,-0.2013,-0.9979,-0.0629,0.0446,-0.1442,12.84510833,77.66386000,1.03510642,846.30000000,
5.995277,0.3633,-0.2013,-0.9979,-0.0244,0.1087,-0.1869,12.84510833,77.66386000,1.03510642,846.30000000,
6.007102,0.3633,-0.2013,-0.9979,-0.0244,0.1087,-0.1869,12.84510833,77.66386000,1.03510642,846.30000000,
6.008466,0.0275,-0.2053,-1.4139,-0.0244,0.1087,-0.1869,12.84510833,77.66386000,1.03510642,846.30000000,
6.015626,0.0275,-0.2053,-1.4139,-0.0214,0.1436,-0.1368,12.84510833,77.66386000,1.03510642,846.30000000,
6.027456,0.0275,-0.2053,-1.4139,-0.0214,0.1436,-0.1368,12.84510833,77.66386000,1.03510642,846.30000000,
6.030694,0.0092,-0.2630,-1.5964,-0.0214,0.1436,-0.1368,12.84510833,77.66386000,1.03510642,846.30000000,
6.036368,0.0092,-0.2630,-1.5964,-0.0110,0.1741,-0.0672,12.84510833,77.66386000,1.03510642,846.30000000,
6.047495,0.0092,-0.2630,-1.5964,-0.0110,0.1741,-0.0672,12.84510833,77.66386000,1.03510642,846.30000000,
6.049356,0.1893,-0.2223,-1.7351,-0.0110,0.1741,-0.0672,12.84510833,77.66386000,1.03510642,846.30000000,
6.056366,0.1893,-0.2223,-1.7351,-0.0238,0.1698,-0.0519,12.84510833,77.66386000,1.03510642,846.30000000,
6.068237,0.1893,-0.2223,-1.7351,-0.0238,0.1698,-0.0519,12.84510833,77.66386000,1.03510642,846.30000000,
6.070053,0.2432,0.1129,-1.6732,-0.0238,0.1698,-0.0519,12.84510833,77.66386000,1.03510642,846.30000000,
6.079514,0.2432,0.1129,-1.6732,-0.0562,0.1985,-0.0476,12.84510833,77.66386000,1.03510642,846.30000000,
6.087106,0.2432,0.1129,-1.6732,-0.0562,0.1985,-0.0476,12.84510833,77.66386000,1.03510642,846.30000000,
6.088412,0.4029,0.3153,-1.3781,-0.0562,0.1985,-0.0476,12.84510833,77.66386000,1.03510642,846.30000000,
6.095946,0.4029,0.3153,-1.3781,-0.0531,0.1875,-0.0605,12.84510833,77.66386000,1.03510642,846.30000000,
6.107541,0.4029,0.3153,-1.3781,-0.0531,0.1875,-0.0605,12.84510833,77.66386000,1.03510642,846.30000000,
6.108989,0.4942,0.3425,-1.1091,-0.0531,0.1875,-0.0605,12.84510833,77.66386000,1.03510642,846.30000000,
6.115985,0.4942,0.3425,-1.1091,0.0312,0.1222,-0.0843,12.84510833,77.66386000,1.03510642,846.30000000,
6.127680,0.4942,0.3425,-1.1091,0.0312,0.1222,-0.0843,12.84510833,77.66386000,1.03510642,846.30000000,
6.129772,0.4954,0.2870,-1.1185,0.0312,0.1222,-0.0843,12.84510833,77.66386000,1.03510642,846.30000000,
6.135684,0.4954,0.2870,-1.1185,0.0727,-0.0580,-0.0886,12.84510833,77.66386000,1.03510642,846.30000000,
6.147632,0.4954,0.2870,-1.1185,0.0727,-0.0580,-0.0886,12.84510833,77.66386000,1.03510642,846.30000000,
6.149222,0.3694,0.4487,-0.8972,0.0727,-0.0580,-0.0886,12.84510833,77.66386000,1.03510642,846.30000000,
6.156666,0.3694,0.4487,-0.8972,0.0415,-0.1393,-0.0544,12.84510833,77.66386000,1.03510642,846.30000000,
6.167537,0.3694,0.4487,-0.8972,0.0415,-0.1393,-0.0544,12.84510833,77.66386000,1.03510642,846.30000000,
6.169253,0.3375,0.5711,-0.4287,0.0415,-0.1393,-0.0544,12.84510833,77.66386000,1.03510642,846.30000000,
6.176853,0.3375,0.5711,-0.4287,0.0501,-0.0544,0.0061,12.84510833,77.66386000,1.03510642,846.30000000,
6.186605,0.3375,0.5711,-0.4287,0.0501,-0.0544,0.0061,12.84510833,77.66386000,1.03510642,846.30000000,
6.188067,0.4505,0.5378,-0.0901,0.0501,-0.0544,0.0061,12.84510833,77.66386000,1.03510642,846.30000000,
6.195630,0.4505,0.5378,-0.0901,0.1222,0.0959,0.0244,12.84510833,77.66386000,1.03510642,846.30000000,
6.207312,0.4505,0.5378,-0.0901,0.1222,0.0959,0.0244,12.84510833,77.66386000,1.03510642,846.30000000,
6.208887,0.4319,0.6269,-0.0669,0.1222,0.0959,0.0244,12.84510833,77.66386000,1.03510642,846.30000000,
6.215719,0.4319,0.6269,-0.0669,0.1961,0.1820,0.0428,12.84510833,77.66386000,1.03510642,846.30000000,
6.228222,0.4319,0.6269,-0.0669,0.1961,0.1820,0.0428,12.84510833,77.66386000,1.03510642,846.30000000,
6.229893,0.2994,0.8965,0.0506,0.1961,0.1820,0.0428,12.84510833,77.66386000,1.03510642,846.30000000,
6.235554,0.2994,0.8965,0.0506,0.2450,0.1484,0.0709,12.84510833,77.66386000,1.03510642,846.30000000,
6.247797,0.2994,0.8965,0.0506,0.2450,0.1484,0.0709,12.84510833,77.66386000,1.03510642,846.30000000,
6.249276,0.2061,1.0102,0.1358,0.2450,0.1484,0.0709,12.84510833,77.66386000,1.03510642,846.30000000,
6.256493,0.2061,1.0102,0.1358,0.2883,0.0788,0.0983,12.84510833,77.66386000,1.03510642,846.30000000,
6.268410,0.2061,1.0102,0.1358,0.2883,0.0788,0.0983,12.84510833,77.66386000,1.03510642,846.30000000,
6.270041,0.1700,0.8965,0.3851,0.2883,0.0788,0.0983,12.84510833,77.66386000,1.03510642,846.30000000,
6.276317,0.1700,0.8965,0.3851,0.3268,-0.0794,0.1283,12.84510833,77.66386000,1.03510642,846.30000000,
6.288165,0.1700,0.8965,0.3851,0.3268,-0.0794,0.1283,12.84510833,77.66386000,1.03510642,846.30000000,
6.289622,0.5308,0.4155,0.8299,0.3268,-0.0794,0.1283,12.84510833,77.66386000,1.03510642,846.30000000,
6.296290,0.5308,0.4155,0.8299,0.2828,-0.2657,0.1051,12.84510833,77.66386000,1.03510642,846.30000000,
6.307864,0.5308,0.4155,0.8299,0.2828,-0.2657,0.1051,12.84510833,77.66386000,1.03510642,846.30000000,
6.309497,0.7909,-0.0788,1.6166,0.2828,-0.2657,0.1051,12.84510833,77.66386000,1.03510642,846.30000000,
6.316139,0.7909,-0.0788,1.6166,0.1894,-0.1955,0.0739,12.84510833,77.66386000,1.03510642,846.30000000,
6.326713,0.7909,-0.0788,1.6166,0.1894,-0.1955,0.0739,12.84510833,77.66386000,1.03510642,846.30000000,
6.328526,0.5991,-0.0545,2.5827,0.1894,-0.1955,0.0739,12.84510833,77.66386000,1.03510642,846.30000000,
6.336005,0.5991,-0.0545,2.5827,0.2621,0.1723,0.0782,12.84510833,77.66386000,1.03510642,846.30000000,
6.348218,0.5991,-0.0545,2.5827,0.2621,0.1723,0.0782,12.84510833,77.66386000,1.03510642,846.30000000,
6.349920,0.2311,-0.1155,2.5497,0.2621,0.1723,0.0782,12.84510833,77.66386000,1.03510642,846.30000000,
6.356377,0.2311,-0.1155,2.5497,0.5388,0.6145,0.0556,12.84510833,77.66386000,1.03510642,846.30000000,
6.367074,0.2311,-0.1155,2.5497,0.5388,0.6145,0.0556,12.84510833,77.66386000,1.03510642,846.30000000,
6.368824,-0.5709,-0.3999,1.1203,0.5388,0.6145,0.0556,12.84510833,77.66386000,1.03510642,846.30000000,
6.379613,-0.5709,-0.3999,1.1203,0.6445,0.7746,0.0605,12.84510833,77.66386000,1.03510642,846.30000000,
6.386781,-0.5709,-0.3999,1.1203,0.6445,0.7746,0.0605,12.84510833,77.66386000,1.03510642,846.30000000,
6.388195,-1.3727,-0.4081,-0.2912,0.6445,0.7746,0.0605,12.84510833,77.66386000,1.03510642,846.30000000,
6.396874,-1.3727,-0.4081,-0.2912,0.3311,0.5834,0.1820,12.84510833,77.66386000,1.03510642,846.30000000,
6.406979,-1.3727,-0.4081,-0.2912,0.3311,0.5834,0.1820,12.84510833,77.66386000,1.03510642,846.30000000,
6.408524,-1.6785,-0.1742,-0.6109,0.3311,0.5834,0.1820,12.84510833,77.66386000,1.03510642,846.30000000,
6.415944,-1.6785,-0.1742,-0.6109,-0.2340,0.3641,0.3598,12.84510833,77.66386000,1.03510642,846.30000000,
6.427544,-1.6785,-0.1742,-0.6109,-0.2340,0.3641,0.3598,12.84510833,77.66386000,1.03510642,846.30000000,
6.429389,-1.1064,-0.2991,0.5160,-0.2340,0.3641,0.3598,12.84510833,77.66386000,1.03510642,846.30000000,
6.436434,-1.1064,-0.2991,0.5160,-0.5858,0.0922,0.3690,12.84510833,77.66386000,1.03510642,846.30000000,
6.447660,-1.1064,-0.2991,0.5160,-0.5858,0.0922,0.3690,12.84510833,77.66386000,1.03510642,846.30000000,
6.449004,-0.1555,-0.7909,2.1751,-0.5858,0.0922,0.3690,12.84510833,77.66386000,1.03510642,846.30000000,
6.455938,-0.1555,-0.7909,2.1751,-0.5315,-0.1765,0.2590,12.84510833,77.66386000,1.03510642,846.30000000,
6.467652,-0.1555,-0.7909,2.1751,-0.5315,-0.1765,0.2590,12.84510833,77.66386000,1.03510642,846.00000000,
6.468736,0.0202,-1.1317,2.8089,-0.5315,-0.1765,0.2590,12.84512167,77.66386000,1.34136605,846.00000000,
6.476977,0.0202,-1.1317,2.8089,-0.2248,-0.2443,0.2437,12.84512167,77.66386000,1.34136605,846.00000000,
6.486731,0.0202,-1.1317,2.8089,-0.2248,-0.2443,0.2437,12.84512167,77.66386000,1.34136605,846.00000000,
6.487466,-0.0238,-1.0807,2.3921,-0.2248,-0.2443,0.2437,12.84512167,77.66386000,1.34136605,846.00000000,
6.495734,-0.0238,-1.0807,2.3921,0.0880,-0.1985,0.2877,12.84512167,77.66386000,1.34136605,846.00000000,
6.507592,-0.0238,-1.0807,2.3921,0.0880,-0.1985,0.2877,12.84512167,77.66386000,1.34136605,846.00000000,
6.509055,-0.1483,-0.8581,1.3135,0.0880,-0.1985,0.2877,12.84512167,77.66386000,1.34136605,846.00000000,
6.516550,-0.1483,-0.8581,1.3135,0.2040,-0.1619,0.2993,12.84512167,77.66386000,1.34136605,846.00000000,
6.527555,-0.1483,-0.8581,1.3135,0.2040,-0.1619,0.2993,12.84512167,77.66386000,1.34136605,846.00000000,
6.529667,-0.1112,-0.5824,0.2166,0.2040,-0.1619,0.2993,12.84512167,77.66386000,1.34136605,846.00000000,
6.536579,-0.1112,-0.5824,0.2166,0.1197,-0.1405,0.2419,12.84512167,77.66386000,1.34136605,846.00000000,
6.547751,-0.1112,-0.5824,0.2166,0.1197,-0.1405,0.2419,12.84512167,77.66386000,1.34136605,846.00000000,
6.549630,0.0645,-0.6398,-0.4856,0.1197,-0.1405,0.2419,12.84512167,77.66386000,1.34136605,846.00000000,
6.556376,0.0645,-0.6398,-0.4856,-0.0837,-0.0831,0.1124,12.84512167,77.66386000,1.34136605,846.00000000,
6.566650,0.0645,-0.6398,-0.4856,-0.0837,-0.0831,0.1124,12.84512167,77.66386000,1.34136605,846.00000000,
6.568485,0.2806,-0.7111,-0.6873,-0.0837,-0.0831,0.1124,12.84512167,77.66386000,1.34136605,846.00000000,
6.576449,0.2806,-0.7111,-0.6873,-0.2364,-0.0147,0.0043,12.84512167,77.66386000,1.34136605,846.00000000,
6.586856,0.2806,-0.7111,-0.6873,-0.2364,-0.0147,0.0043,12.84512167,77.66386000,1.34136605,846.00000000,
6.588530,0.5017,-0.7025,-0.7372,-0.2364,-0.0147,0.0043,12.84512167,77.66386000,1.34136605,846.00000000,
6.595708,0.5017,-0.7025,-0.7372,-0.2834,0.0354,-0.0843,12.84512167,77.66386000,1.34136605,846.00000000,
6.607419,0.5017,-0.7025,-0.7372,-0.2834,0.0354,-0.0843,12.84512167,77.66386000,1.34136605,846.00000000,
6.608926,0.3612,-0.6748,-1.0534,-0.2834,0.0354,-0.0843,12.84512167,77.66386000,1.34136605,846.00000000,
6.616099,0.3612,-0.6748,-1.0534,-0.2767,0.0513,-0.1472,12.84512167,77.66386000,1.34136605,846.00000000,
6.628684,0.3612,-0.6748,-1.0534,-0.2767,0.0513,-0.1472,12.84512167,77.66386000,1.34136605,846.00000000,
6.631641,0.0633,-0.6998,-1.5780,-0.2767,0.0513,-0.1472,12.84512167,77.66386000,1.34136605,846.00000000,
6.636306,0.0633,-0.6998,-1.5780,-0.2841,0.1032,-0.1662,12.84512167,77.66386000,1.34136605,846.00000000,
6.648339,0.0633,-0.6998,-1.5780,-0.2841,0.1032,-0.1662,12.84512167,77.66386000,1.34136605,846.00000000,
6.650222,-0.1947,-0.7556,-2.0181,-0.2841,0.1032,-0.1662,12.84512167,77.66386000,1.34136605,846.00000000,
6.656048,-0.1947,-0.7556,-2.0181,-0.3299,0.1087,-0.1222,12.84512167,77.66386000,1.34136605,846.00000000,
6.666997,-0.1947,-0.7556,-2.0181,-0.3299,0.1087,-0.1222,12.84512167,77.66386000,1.34136605,846.00000000,
6.668690,-0.2175,-0.7839,-2.0869,-0.3299,0.1087,-0.1222,12.84512167,77.66386000,1.34136605,846.00000000,
6.676524,-0.2175,-0.7839,-2.0869,-0.3592,0.1142,-0.0208,12.84512167,77.66386000,1.34136605,846.00000000,
6.686909,-0.2175,-0.7839,-2.0869,-0.3592,0.1142,-0.0208,12.84512167,77.66386000,1.34136605,846.00000000,
6.689051,0.0110,-0.7093,-1.8313,-0.3592,0.1142,-0.0208,12.84512167,77.66386000,1.34136605,846.00000000,
6.695638,0.0110,-0.7093,-1.8313,-0.2786,0.0929,0.0452,12.84512167,77.66386000,1.34136605,846.00000000,
6.710242,0.0110,-0.7093,-1.8313,-0.2786,0.0929,0.0452,12.84512167,77.66386000,1.34136605,846.00000000,
6.712198,0.3012,-0.6982,-1.7936,-0.2786,0.0929,0.0452,12.84512167,77.66386000,1.34136605,846.00000000,
6.715741,0.3012,-0.6982,-1.7936,-0.1600,0.0024,0.0385,12.84512167,77.66386000,1.34136605,846.00000000,
6.727707,0.3012,-0.6982,-1.7936,-0.1600,0.0024,0.0385,12.84512167,77.66386000,1.34136605,846.00000000,
6.729477,0.3953,-0.6038,-1.8695,-0.1600,0.0024,0.0385,12.84512167,77.66386000,1.34136605,846.00000000,
6.736219,0.3953,-0.6038,-1.8695,-0.0953,-0.1020,0.0202,12.84512167,77.66386000,1.34136605,846.00000000,
6.747722,0.3953,-0.6038,-1.8695,-0.0953,-0.1020,0.0202,12.84512167,77.66386000,1.34136605,846.00000000,
6.749588,0.2170,-0.4425,-1.8565,-0.0953,-0.1020,0.0202,12.84512167,77.66386000,1.34136605,846.00000000,
6.756158,0.2170,-0.4425,-1.8565,-0.1045,-0.1655,0.0214,12.84512167,77.66386000,1.34136605,846.00000000,
6.767127,0.2170,-0.4425,-1.8565,-0.1045,-0.1655,0.0214,12.84512167,77.66386000,1.34136605,846.00000000,
6.768987,-0.0548,-0.2123,-1.4160,-0.1045,-0.1655,0.0214,12.84512167,77.66386000,1.34136605,846.00000000,
6.778635,-0.0548,-0.2123,-1.4160,-0.1051,-0.1332,0.0562,12.84512167,77.66386000,1.34136605,846.00000000,
6.786971,-0.0548,-0.2123,-1.4160,-0.1051,-0.1332,0.0562,12.84512167,77.66386000,1.34136605,846.00000000,
6.788713,-0.2744,-0.1834,-0.6088,-0.1051,-0.1332,0.0562,12.84512167,77.66386000,1.34136605,846.00000000,
6.795793,-0.2744,-0.1834,-0.6088,-0.0305,-0.0513,0.1210,12.84512167,77.66386000,1.34136605,846.00000000,
6.807410,-0.2744,-0.1834,-0.6088,-0.0305,-0.0513,0.1210,12.84512167,77.66386000,1.34136605,846.00000000,
6.808934,-0.1254,-0.2409,-0.0722,-0.0305,-0.0513,0.1210,12.84512167,77.66386000,1.34136605,846.00000000,
6.816593,-0.1254,-0.2409,-0.0722,0.0586,0.0299,0.1674,12.84512167,77.66386000,1.34136605,846.00000000,
6.827678,-0.1254,-0.2409,-0.0722,0.0586,0.0299,0.1674,12.84512167,77.66386000,1.34136605,846.00000000,
6.829570,0.0726,0.0009,0.2424,0.0586,0.0299,0.1674,12.84512167,77.66386000,1.34136605,846.00000000,
6.836348,0.0726,0.0009,0.2424,0.1148,0.0318,0.1881,12.84512167,77.66386000,1.34136605,846.00000000,
6.848329,0.0726,0.0009,0.2424,0.1148,0.0318,0.1881,12.84512167,77.66386000,1.34136605,846.00000000,
6.849927,0.2711,0.0609,0.7393,0.1148,0.0318,0.1881,12.84512167,77.66386000,1.34136605,846.00000000,
6.855752,0.2711,0.0609,0.7393,0.1191,-0.1210,0.1576,12.84512167,77.66386000,1.34136605,846.00000000,
6.867054,0.2711,0.0609,0.7393,0.1191,-0.1210,0.1576,12.84512167,77.66386000,1.34136605,846.00000000,
6.868858,0.2211,-0.0270,1.4315,0.1191,-0.1210,0.1576,12.84512167,77.66386000,1.34136605,846.00000000,
6.879571,0.2211,-0.0270,1.4315,0.1527,-0.2272,0.1466,12.84512167,77.66386000,1.34136605,846.00000000,
6.887037,0.2211,-0.0270,1.4315,0.1527,-0.2272,0.1466,12.84512167,77.66386000,1.34136605,846.00000000,
6.888475,0.1867,-0.2006,2.0934,0.1527,-0.2272,0.1466,12.84512167,77.66386000,1.34136605,846.00000000,
6.896459,0.1867,-0.2006,2.0934,0.2266,-0.2724,0.1826,12.84512167,77.66386000,1.34136605,846.00000000,
6.907582,0.1867,-0.2006,2.0934,0.2266,-0.2724,0.1826,12.84512167,77.66386000,1.34136605,846.00000000,
6.908860,0.3791,-0.4044,2.4016,0.2266,-0.2724,0.1826,12.84512167,77.66386000,1.34136605,846.00000000,
6.916634,0.3791,-0.4044,2.4016,0.2841,-0.3225,0.2132,12.84512167,77.66386000,1.34136605,846.00000000,
6.927883,0.3791,-0.4044,2.4016,0.2841,-0.3225,0.2132,12.84512167,77.66386000,1.34136605,846.00000000,
6.929411,0.4716,-0.5711,2.6584,0.2841,-0.3225,0.2132,12.84512167,77.66386000,1.34136605,846.00000000,
6.936231,0.4716,-0.5711,2.6584,0.3189,-0.2957,0.2327,12.84512167,77.66386000,1.34136605,846.00000000,
6.948115,0.4716,-0.5711,2.6584,0.3189,-0.2957,0.2327,12.84512167,77.66386000,1.34136605,846.00000000,
6.950045,0.2783,-0.4302,2.4943,0.3189,-0.2957,0.2327,12.84512167,77.66386000,1.34136605,846.00000000,
6.955421,0.2783,-0.4302,2.4943,0.3830,-0.0354,0.2175,12.84512167,77.66386000,1.34136605,846.00000000,
6.967619,0.2783,-0.4302,2.4943,0.3830,-0.0354,0.2175,12.84512167,77.66386000,1.34136605,846.00000000,
6.969374,0.0959,-0.2004,1.5186,0.3830,-0.0354,0.2175,12.84512167,77.66386000,1.34136605,846.00000000,
6.975794,0.0959,-0.2004,1.5186,0.2492,0.1478,0.0568,12.84512167,77.66386000,1.34136605,846.00000000,
6.986783,0.0959,-0.2004,1.5186,0.2492,0.1478,0.0568,12.84512167,77.66386000,1.34136605,846.00000000,
6.988196,0.3499,0.0164,0.4350,0.2492,0.1478,0.0568,12.84512167,77.66386000,1.34136605,846.00000000,
6.996708,0.3499,0.0164,0.4350,-0.3244,-0.1637,-0.1936,12.84512167,77.66386000,1.34136605,846.00000000,
7.010659,0.3499,0.0164,0.4350,-0.3244,-0.1637,-0.1936,12.84512167,77.66386000,1.34136605,846.00000000,
7.012694,0.4652,-0.1862,0.9682,-0.3244,-0.1637,-0.1936,12.84512167,77.66386000,1.34136605,846.00000000,
7.016142,0.4652,-0.1862,0.9682,-0.9902,-0.3231,-0.4294,12.84512167,77.66386000,1.34136605,846.00000000,
7.029236,0.4652,-0.1862,0.9682,-0.9902,-0.3231,-0.4294,12.84512167,77.66386000,1.34136605,846.00000000,
7.030859,-0.0445,-1.3867,2.7110,-0.9902,-0.3231,-0.4294,12.84512167,77.66386000,1.34136605,846.00000000,
7.036176,-0.0445,-1.3867,2.7110,-1.1600,-0.0098,-0.4374,12.84512167,77.66386000,1.34136605,846.00000000,
7.047430,-0.0445,-1.3867,2.7110,-1.1600,-0.0098,-0.4374,12.84512167,77.66386000,1.34136605,846.00000000,
7.048559,-0.5997,-1.9287,3.8886,-1.1600,-0.0098,-0.4374,12.84512167,77.66386000,1.34136605,846.00000000,
7.055602,-0.5997,-1.9287,3.8886,-0.7208,0.2700,-0.2242,12.84512167,77.66386000,1.34136605,846.00000000,
7.067455,-0.5997,-1.9287,3.8886,-0.7208,0.2700,-0.2242,12.84512167,77.66386000,1.34136605,846.00000000,
7.069680,-0.6522,-1.9762,2.7514,-0.7208,0.2700,-0.2242,12.84512167,77.66386000,1.34136605,846.00000000,
7.078196,-0.6522,-1.9762,2.7514,-0.1839,0.3751,0.0232,12.84512167,77.66386000,1.34136605,846.00000000,
7.087880,-0.6522,-1.9762,2.7514,-0.1839,0.3751,0.0232,12.84512167,77.66386000,1.34136605,846.00000000,
7.089610,-0.2110,-1.4290,1.0030,-0.1839,0.3751,0.0232,12.84512167,77.66386000,1.34136605,846.00000000,
7.096089,-0.2110,-1.4290,1.0030,0.1888,0.4459,0.1130,12.84512167,77.66386000,1.34136605,846.00000000,
7.107474,-0.2110,-1.4290,1.0030,0.1888,0.4459,0.1130,12.84512167,77.66386000,1.34136605,846.00000000,
7.108617,0.5051,-0.8932,-0.1231,0.1888,0.4459,0.1130,12.84512167,77.66386000,1.34136605,846.00000000,
7.118051,0.5051,-0.8932,-0.1231,0.2395,0.2633,-0.0776,12.84512167,77.66386000,1.34136605,846.00000000,
7.128363,0.5051,-0.8932,-0.1231,0.2395,0.2633,-0.0776,12.84512167,77.66386000,1.34136605,846.00000000,
7.131029,0.5685,-0.5442,-0.8973,0.2395,0.2633,-0.0776,12.84512167,77.66386000,1.34136605,846.00000000,
7.136504,0.5685,-0.5442,-0.8973,0.0696,0.1655,-0.2474,12.84512167,77.66386000,1.34136605,846.00000000,
7.146885,0.5685,-0.5442,-0.8973,0.0696,0.1655,-0.2474,12.84512167,77.66386000,1.34136605,846.00000000,
7.148871,0.6427,-0.9088,-1.3958,0.0696,0.1655,-0.2474,12.84512167,77.66386000,1.34136605,846.00000000,
7.155464,0.6427,-0.9088,-1.3958,-0.1637,0.2749,-0.2816,12.84512167,77.66386000,1.34136605,846.00000000,
7.167334,0.6427,-0.9088,-1.3958,-0.1637,0.2749,-0.2816,12.84512167,77.66386000,1.34136605,846.00000000,
7.169271,0.7288,-0.9501,-1.3159,-0.1637,0.2749,-0.2816,12.84512167,77.66386000,1.34136605,846.00000000,
7.176344,0.7288,-0.9501,-1.3159,-0.3586,0.2877,-0.3097,12.84512167,77.66386000,1.34136605,846.00000000,
7.187656,0.7288,-0.9501,-1.3159,-0.3586,0.2877,-0.3097,12.84512167,77.66386000,1.34136605,846.00000000,
7.189258,0.7357,-0.5414,-0.9131,-0.3586,0.2877,-0.3097,12.84512167,77.66386000,1.34136605,846.00000000,
7.196078,0.7357,-0.5414,-0.9131,-0.3787,0.1918,-0.3170,12.84512167,77.66386000,1.34136605,846.00000000,
7.208331,0.7357,-0.5414,-0.9131,-0.3787,0.1918,-0.3170,12.84512167,77.66386000,1.34136605,846.00000000,
7.209855,0.6978,-0.2999,-0.5828,-0.3787,0.1918,-0.3170,12.84512167,77.66386000,1.34136605,846.00000000,
7.216722,0.6978,-0.2999,-0.5828,-0.2334,0.0531,-0.3427,12.84512167,77.66386000,1.34136605,846.00000000,
7.227758,0.6978,-0.2999,-0.5828,-0.2334,0.0531,-0.3427,12.84512167,77.66386000,1.34136605,846.00000000,
7.229525,0.5295,-0.2544,-0.6534,-0.2334,0.0531,-0.3427,12.84512167,77.66386000,1.34136605,846.00000000,
7.236064,0.5295,-0.2544,-0.6534,0.0012,0.0550,-0.3445,12.84512167,77.66386000,1.34136605,846.00000000,
7.247890,0.5295,-0.2544,-0.6534,0.0012,0.0550,-0.3445,12.84512167,77.66386000,1.34136605,846.00000000,
7.249632,0.2443,-0.1423,-1.1510,0.0012,0.0550,-0.3445,12.84512167,77.66386000,1.34136605,846.00000000,
7.256092,0.2443,-0.1423,-1.1510,0.2260,0.1906,-0.3103,12.84512167,77.66386000,1.34136605,846.00000000,
7.267845,0.2443,-0.1423,-1.1510,0.2260,0.1906,-0.3103,12.84512167,77.66386000,1.34136605,846.00000000,
7.269476,0.0288,-0.0357,-1.9574,0.2260,0.1906,-0.3103,12.84512167,77.66386000,1.34136605,846.00000000,
7.275924,0.0288,-0.0357,-1.9574,0.2889,0.2370,-0.2547,12.84512167,77.66386000,1.34136605,846.00000000,
7.288238,0.0288,-0.0357,-1.9574,0.2889,0.2370,-0.2547,12.84512167,77.66386000,1.34136605,846.00000000,
7.289630,-0.0030,0.0778,-2.5205,0.2889,0.2370,-0.2547,12.84512167,77.66386000,1.34136605,846.00000000,
7.297068,-0.0030,0.0778,-2.5205,0.1778,0.0782,-0.1839,12.84512167,77.66386000,1.34136605,846.00000000,
7.309794,-0.0030,0.0778,-2.5205,0.1778,0.0782,-0.1839,12.84512167,77.66386000,1.34136605,846.00000000,
7.312091,0.0396,0.2142,-2.3819,0.1778,0.0782,-0.1839,12.84512167,77.66386000,1.34136605,846.00000000,
7.316462,0.0396,0.2142,-2.3819,0.0367,-0.1057,-0.0886,12.84512167,77.66386000,1.34136605,846.00000000,
7.328988,0.0396,0.2142,-2.3819,0.0367,-0.1057,-0.0886,12.84512167,77.66386000,1.34136605,846.00000000,
7.330606,0.5911,0.3928,-1.2396,0.0367,-0.1057,-0.0886,12.84512167,77.66386000,1.34136605,846.00000000,
7.335325,0.5911,0.3928,-1.2396,0.0849,-0.1747,-0.0727,12.84512167,77.66386000,1.34136605,846.00000000,
7.347027,0.5911,0.3928,-1.2396,0.0849,-0.1747,-0.0727,12.84512167,77.66386000,1.34136605,846.00000000,
7.348824,0.8846,0.2914,-0.4550,0.0849,-0.1747,-0.0727,12.84512167,77.66386000,1.34136605,846.00000000,
7.355691,0.8846,0.2914,-0.4550,0.2731,-0.2016,-0.1607,12.84512167,77.66386000,1.34136605,846.00000000,
7.366793,0.8846,0.2914,-0.4550,0.2731,-0.2016,-0.1607,12.84512167,77.66386000,1.34136605,846.00000000,
7.369032,0.6458,0.1339,-0.5761,0.2731,-0.2016,-0.1607,12.84512167,77.66386000,1.34136605,846.00000000,
7.376380,0.6458,0.1339,-0.5761,0.3354,-0.1600,-0.2132,12.84512167,77.66386000,1.34136605,846.00000000,
7.386713,0.6458,0.1339,-0.5761,0.3354,-0.1600,-0.2132,12.84512167,77.66386000,1.34136605,846.00000000,
7.388623,0.0988,0.0272,-0.6932,0.3354,-0.1600,-0.2132,12.84512167,77.66386000,1.34136605,846.00000000,
7.396708,0.0988,0.0272,-0.6932,0.2065,-0.0421,-0.0892,12.84512167,77.66386000,1.34136605,846.00000000,
7.409860,0.0988,0.0272,-0.6932,0.2065,-0.0421,-0.0892,12.84512167,77.66386000,1.34136605,846.00000000,
7.411822,-0.1016,-0.0042,-0.5205,0.2065,-0.0421,-0.0892,12.84512167,77.66386000,1.34136605,846.00000000,
7.416302,-0.1016,-0.0042,-0.5205,0.0715,0.0214,0.1014,12.84512167,77.66386000,1.34136605,846.00000000,
7.428883,-0.1016,-0.0042,-0.5205,0.0715,0.0214,0.1014,12.84512167,77.66386000,1.34136605,846.00000000,
7.430974,0.0707,0.3219,0.2619,0.0715,0.0214,0.1014,12.84512167,77.66386000,1.34136605,846.00000000,
7.436877,0.0707,0.3219,0.2619,0.1362,-0.1588,0.1820,12.84512167,77.66386000,1.34136605,846.00000000,
7.448693,0.0707,0.3219,0.2619,0.1362,-0.1588,0.1820,12.84512167,77.66386000,1.34136605,846.00000000,
7.450121,0.2130,0.6973,0.9071,0.1362,-0.1588,0.1820,12.84512167,77.66386000,1.34136605,846.00000000,
7.456451,0.2130,0.6973,0.9071,0.3745,-0.2969,0.1271,12.84512167,77.66386000,1.34136605,846.00000000,
7.467535,0.2130,0.6973,0.9071,0.3745,-0.2969,0.1271,12.84512167,77.66386000,1.34136605,845.60000000,
7.469270,0.0629,0.7254,0.7831,0.3745,-0.2969,0.1271,12.84513333,77.66386000,0.92289692,845.60000000,
7.476295,0.0629,0.7254,0.7831,0.5486,-0.2156,0.0544,12.84513333,77.66386000,0.92289692,845.60000000,
7.488358,0.0629,0.7254,0.7831,0.5486,-0.2156,0.0544,12.84513333,77.66386000,0.92289692,845.60000000,
7.489486,-0.1889,0.3570,0.3561,0.5486,-0.2156,0.0544,12.84513333,77.66386000,0.92289692,845.60000000,
7.496438,-0.1889,0.3570,0.3561,0.4869,-0.0110,0.1222,12.84513333,77.66386000,0.92289692,845.60000000,
7.508317,-0.1889,0.3570,0.3561,0.4869,-0.0110,0.1222,12.84513333,77.66386000,0.92289692,845.60000000,
7.509895,-0.0685,0.0275,0.3401,0.4869,-0.0110,0.1222,12.84513333,77.66386000,0.92289692,845.60000000,
7.516045,-0.0685,0.0275,0.3401,0.2358,0.0617,0.2138,12.84513333,77.66386000,0.92289692,845.60000000,
7.527661,-0.0685,0.0275,0.3401,0.2358,0.0617,0.2138,12.84513333,77.66386000,0.92289692,845.60000000,
7.529154,0.1845,0.0583,0.9455,0.2358,0.0617,0.2138,12.84513333,77.66386000,0.92289692,845.60000000,
7.536305,0.1845,0.0583,0.9455,-0.0831,0.0049,0.1778,12.84513333,77.66386000,0.92289692,845.60000000,
7.547634,0.1845,0.0583,0.9455,-0.0831,0.0049,0.1778,12.84513333,77.66386000,0.92289692,845.60000000,
7.549079,0.5483,0.1732,1.8840,-0.0831,0.0049,0.1778,12.84513333,77.66386000,0.92289692,845.60000000,
7.555746,0.5483,0.1732,1.8840,-0.3708,-0.2382,0.0031,12.84513333,77.66386000,0.92289692,845.60000000,
7.568521,0.5483,0.1732,1.8840,-0.3708,-0.2382,0.0031,12.84513333,77.66386000,0.92289692,845.60000000,
7.570162,0.9895,-0.0303,3.5394,-0.3708,-0.2382,0.0031,12.84513333,77.66386000,0.92289692,845.60000000,
7.578454,0.9895,-0.0303,3.5394,-0.5089,-0.3903,-0.2297,12.84513333,77.66386000,0.92289692,845.60000000,
7.587484,0.9895,-0.0303,3.5394,-0.5089,-0.3903,-0.2297,12.84513333,77.66386000,0.92289692,845.60000000,
7.588928,0.7803,-0.7902,5.1055,-0.5089,-0.3903,-0.2297,12.84513333,77.66386000,0.92289692,845.60000000,
7.596590,0.7803,-0.7902,5.1055,-0.3647,-0.2950,-0.3903,12.84513333,77.66386000,0.92289692,845.60000000,
7.609641,0.7803,-0.7902,5.1055,-0.3647,-0.2950,-0.3903,12.84513333,77.66386000,0.92289692,845.60000000,
7.611341,-0.1595,-1.4732,5.5104,-0.3647,-0.2950,-0.3903,12.84513333,77.66386000,0.92289692,845.60000000,
7.615813,-0.1595,-1.4732,5.5104,0.0470,-0.1704,-0.3592,12.84513333,77.66386000,0.92289692,845.60000000,
7.629250,-0.1595,-1.4732,5.5104,0.0470,-0.1704,-0.3592,12.84513333,77.66386000,0.92289692,845.60000000,
7.631692,-1.1304,-1.8248,4.2694,0.0470,-0.1704,-0.3592,12.84513333,77.66386000,0.92289692,845.60000000,
7.636091,-1.1304,-1.8248,4.2694,0.5272,0.0568,-0.1515,12.84513333,77.66386000,0.92289692,845.60000000,
7.648977,-1.1304,-1.8248,4.2694,0.5272,0.0568,-0.1515,12.84513333,77.66386000,0.92289692,845.60000000,
7.650708,-1.6263,-1.8995,1.9375,0.5272,0.0568,-0.1515,12.84513333,77.66386000,0.92289692,845.60000000,
7.656807,-1.6263,-1.8995,1.9375,0.8094,0.3647,0.0672,12.84513333,77.66386000,0.92289692,845.60000000,
7.668289,-1.6263,-1.8995,1.9375,0.8094,0.3647,0.0672,12.84513333,77.66386000,0.92289692,845.60000000,
7.670042,-1.8489,-1.5203,-0.1646,0.8094,0.3647,0.0672,12.84513333,77.66386000,0.92289692,845.60000000,
7.678326,-1.8489,-1.5203,-0.1646,0.6939,0.3225,0.2633,12.84513333,77.66386000,0.92289692,845.60000000,
7.687979,-1.8489,-1.5203,-0.1646,0.6939,0.3225,0.2633,12.84513333,77.66386000,0.92289692,845.60000000,
7.689918,-1.7373,-0.7253,-1.2033,0.6939,0.3225,0.2633,12.84513333,77.66386000,0.92289692,845.60000000,
7.696591,-1.7373,-0.7253,-1.2033,0.2498,-0.1124,0.4533,12.84513333,77.66386000,0.92289692,845.60000000,
7.709807,-1.7373,-0.7253,-1.2033,0.2498,-0.1124,0.4533,12.84513333,77.66386000,0.92289692,845.60000000,
7.713068,-0.9252,-0.2821,-0.8158,0.2498,-0.1124,0.4533,12.84513333,77.66386000,0.92289692,845.60000000,
7.716025,-0.9252,-0.2821,-0.8158,-0.0519,-0.4355,0.4972,12.84513333,77.66386000,0.92289692,845.60000000,
7.727624,-0.9252,-0.2821,-0.8158,-0.0519,-0.4355,0.4972,12.84513333,77.66386000,0.92289692,845.60000000,
7.729449,0.0660,-0.5426,-0.1600,-0.0519,-0.4355,0.4972,12.84513333,77.66386000,0.92289692,845.60000000,
7.735895,0.0660,-0.5426,-0.1600,-0.1087,-0.5339,0.3445,12.84513333,77.66386000,0.92289692,845.60000000,
7.747925,0.0660,-0.5426,-0.1600,-0.1087,-0.5339,0.3445,12.84513333,77.66386000,0.92289692,845.60000000,
7.749639,0.0314,-0.7363,-0.1086,-0.1087,-0.5339,0.3445,12.84513333,77.66386000,0.92289692,845.60000000,
7.755900,0.0314,-0.7363,-0.1086,-0.0580,-0.4410,0.2150,12.84513333,77.66386000,0.92289692,845.60000000,
7.767491,0.0314,-0.7363,-0.1086,-0.0580,-0.4410,0.2150,12.84513333,77.66386000,0.92289692,845.60000000,
7.769542,-0.3038,-0.8697,-0.5149,-0.0580,-0.4410,0.2150,12.84513333,77.66386000,0.92289692,845.60000000,
7.778251,-0.3038,-0.8697,-0.5149,-0.0409,-0.1888,0.1857,12.84513333,77.66386000,0.92289692,845.60000000,
7.788212,-0.3038,-0.8697,-0.5149,-0.0409,-0.1888,0.1857,12.84513333,77.66386000,0.92289692,845.60000000,
7.789817,-0.6321,-0.8877,-1.1354,-0.0409,-0.1888,0.1857,12.84513333,77.66386000,0.92289692,845.60000000,
7.796577,-0.6321,-0.8877,-1.1354,-0.1191,0.0623,0.2040,12.84513333,77.66386000,0.92289692,845.60000000,
